Sample : Ni
Pre-Pulse  Slope = 6.524896E-3 +/- 4.518110E-4 Intercept = 4.724213E+0 +/- 1.099336E-3 Residue = 1.595354E-8
Heat Pulse  Slope = 9.830042E-3 +/- 6.486885E-4 Intercept = 4.702760E+0 +/- 4.895692E-3 Residue = 1.983012E-8
Post-Pulse  Slope = 6.003062E-3 +/- 3.668466E-4 Intercept = 4.743320E+0 +/- 4.602201E-3 Residue = 6.346510E-9
Sample Voltage = 7.000000E-2 Sample Voltage Uncertainty = 1.000000E-2
Sample Current = 9.977000E-1 Sample Current Uncertainty = 1.000000E-4
t(s)	T(K)	dT(K)
0.000000	4.723151	0.010000
0.111006	4.726063	0.010000
0.213012	4.724041	0.010000
0.316018	4.727662	0.010000
0.419024	4.724898	0.010000
0.521029	4.728233	0.010000
0.624035	4.726946	0.010000
0.727041	4.728087	0.010000
0.830047	4.728397	0.010000
0.933053	4.730135	0.010000
1.035059	4.731178	0.010000
1.138065	4.731693	0.010000
1.241071	4.732418	0.010000
1.343077	4.733001	0.010000
1.446083	4.733385	0.010000
1.548089	4.734654	0.010000
1.651094	4.737607	0.010000
1.754100	4.739534	0.010000
1.856106	4.736567	0.010000
1.959112	4.736722	0.010000
2.061118	4.738103	0.010000
2.164124	4.738862	0.010000
2.266129	4.736692	0.010000
2.369135	4.738179	0.010000
2.472141	4.739220	0.010000
2.574147	4.742457	0.010000
2.676153	4.742226	0.010000
2.779159	4.743269	0.010000
2.882164	4.743038	0.010000
2.985170	4.742043	0.010000
3.088176	4.743839	0.010000
3.190182	4.744032	0.010000
3.293188	4.745077	0.010000
3.396194	4.745857	0.010000
3.498200	4.746682	0.010000
3.600206	4.746763	0.010000
3.702211	4.747166	0.010000
3.804217	4.750555	0.010000
3.907223	4.752062	0.010000
4.010229	4.749067	0.010000
4.113235	4.750158	0.010000
4.215241	4.750606	0.010000
4.318247	4.750235	0.010000
4.420253	4.751700	0.010000
4.522258	4.752004	0.010000
4.624264	4.752226	0.010000
4.726270	4.753965	0.010000
4.828276	4.754785	0.010000
4.931282	4.753380	0.010000
5.033288	4.755066	0.010000
5.137294	4.754945	0.010000
5.239299	4.754960	0.010000
5.341305	4.756364	0.010000
5.444311	4.756273	0.010000
5.547317	4.756447	0.010000
5.650323	4.757450	0.010000
5.753329	4.760471	0.010000
5.856335	4.759083	0.010000
5.959341	4.765216	0.010000
6.062346	4.764382	0.010000
6.165352	4.763667	0.010000
6.268358	4.762649	0.010000
6.371364	4.764602	0.010000
6.473370	4.766540	0.010000
6.576376	4.767425	0.010000
6.679382	4.768436	0.010000
6.781388	4.768245	0.010000
6.884394	4.771654	0.010000
6.986399	4.770709	0.010000
7.088405	4.771971	0.010000
7.190411	4.772973	0.010000
7.293417	4.773700	0.010000
7.396423	4.775453	0.010000
7.498429	4.776135	0.010000
7.600435	4.776325	0.010000
7.702440	4.778550	0.010000
7.805446	4.779683	0.010000
7.908452	4.781058	0.010000
8.011458	4.780936	0.010000
8.114464	4.785313	0.010000
8.216470	4.788754	0.010000
8.318476	4.785551	0.010000
8.420482	4.785105	0.010000
8.522487	4.785922	0.010000
8.624493	4.786433	0.010000
8.726499	4.788310	0.010000
8.829505	4.787486	0.010000
8.931510	4.789605	0.010000
9.033516	4.792312	0.010000
9.136522	4.791955	0.010000
9.238528	4.794783	0.010000
9.341534	4.793059	0.010000
9.443540	4.794873	0.010000
9.545546	4.796447	0.010000
9.647552	4.795917	0.010000
9.749557	4.796815	0.010000
9.851563	4.799058	0.010000
9.953569	4.800493	0.010000
10.055575	4.801310	0.010000
10.157581	4.803360	0.010000
10.260587	4.805589	0.010000
10.363593	4.809784	0.010000
10.466599	4.804771	0.010000
10.569604	4.806369	0.010000
10.672610	4.807445	0.010000
10.774616	4.807338	0.010000
10.876622	4.808373	0.010000
10.979628	4.809750	0.010000
11.081634	4.810582	0.010000
11.183640	4.809973	0.010000
11.286645	4.811210	0.010000
11.389651	4.811902	0.010000
11.491657	4.811690	0.010000
11.593663	4.813174	0.010000
11.695669	4.813213	0.010000
11.797675	4.815028	0.010000
11.899681	4.816464	0.010000
12.002687	4.814896	0.010000
12.105692	4.816277	0.010000
12.208698	4.815908	0.010000
12.310704	4.816608	0.010000
12.412710	4.816441	0.010000
12.515716	4.817952	0.010000
12.617722	4.819230	0.010000
12.720727	4.818450	0.010000
12.823733	4.821639	0.010000
12.926739	4.820869	0.010000
13.028745	4.821934	0.010000
13.130751	4.820765	0.010000
13.233757	4.823085	0.010000
13.335763	4.823312	0.010000
13.438768	4.824792	0.010000
13.541774	4.823666	0.010000
13.643780	4.826361	0.010000
13.745786	4.825647	0.010000
13.847792	4.827580	0.010000
13.950798	4.826528	0.010000
14.053803	4.827375	0.010000
14.156810	4.827636	0.010000
14.259815	4.829774	0.010000
14.361821	4.827846	0.010000
14.463827	4.830513	0.010000
14.565833	4.830300	0.010000
14.667839	4.832636	0.010000
14.769845	4.831427	0.010000
14.872850	4.834348	0.010000
14.974856	4.833954	0.010000
15.076862	4.833764	0.010000
Sample : Ni
Pre-Pulse  Slope = 8.687283E-3 +/- 7.302200E-4 Intercept = 5.593278E+0 +/- 1.776016E-3 Residue = 4.161494E-8
Heat Pulse  Slope = 1.019415E-2 +/- 5.873268E-4 Intercept = 5.581538E+0 +/- 4.429584E-3 Residue = 1.621658E-8
Post-Pulse  Slope = 7.075730E-3 +/- 6.725581E-4 Intercept = 5.615891E+0 +/- 8.432106E-3 Residue = 2.121642E-8
Sample Voltage = 7.000000E-2 Sample Voltage Uncertainty = 1.000000E-2
Sample Current = 9.977000E-1 Sample Current Uncertainty = 1.000000E-4
t(s)	T(K)	dT(K)
0.000000	5.590974	0.010000
0.113007	5.592882	0.010000
0.215013	5.596310	0.010000
0.318018	5.594663	0.010000
0.421024	5.596134	0.010000
0.523030	5.598943	0.010000
0.626036	5.597373	0.010000
0.728042	5.598635	0.010000
0.831048	5.600248	0.010000
0.934053	5.602014	0.010000
1.036059	5.604527	0.010000
1.139065	5.600803	0.010000
1.241071	5.601252	0.010000
1.343077	5.605914	0.010000
1.445083	5.603864	0.010000
1.547089	5.604964	0.010000
1.650095	5.609745	0.010000
1.752100	5.612152	0.010000
1.854106	5.608851	0.010000
1.956112	5.607151	0.010000
2.059118	5.613365	0.010000
2.162124	5.609637	0.010000
2.265130	5.609617	0.010000
2.368135	5.616809	0.010000
2.470141	5.617705	0.010000
2.572147	5.615853	0.010000
2.675153	5.619921	0.010000
2.778159	5.620388	0.010000
2.880165	5.619863	0.010000
2.983171	5.620354	0.010000
3.085177	5.621474	0.010000
3.188182	5.621043	0.010000
3.291188	5.619722	0.010000
3.394194	5.620872	0.010000
3.497200	5.620860	0.010000
3.600206	5.624189	0.010000
3.702212	5.624783	0.010000
3.804218	5.625916	0.010000
3.907224	5.626688	0.010000
4.010230	5.626987	0.010000
4.113235	5.628860	0.010000
4.215241	5.628740	0.010000
4.317247	5.626398	0.010000
4.419253	5.629689	0.010000
4.521259	5.630081	0.010000
4.624265	5.629967	0.010000
4.726271	5.631748	0.010000
4.828277	5.629947	0.010000
4.931282	5.632809	0.010000
5.034288	5.633382	0.010000
5.136294	5.633815	0.010000
5.239300	5.634431	0.010000
5.342306	5.636911	0.010000
5.444312	5.634526	0.010000
5.546318	5.638617	0.010000
5.648324	5.637531	0.010000
5.751329	5.637815	0.010000
5.854335	5.641701	0.010000
5.957341	5.640632	0.010000
6.060347	5.644475	0.010000
6.163353	5.642009	0.010000
6.265358	5.643146	0.010000
6.367364	5.647719	0.010000
6.469370	5.647650	0.010000
6.571376	5.648964	0.010000
6.673382	5.651607	0.010000
6.776388	5.651267	0.010000
6.879394	5.651111	0.010000
6.981400	5.652113	0.010000
7.083405	5.654042	0.010000
7.186411	5.653843	0.010000
7.289417	5.657952	0.010000
7.391423	5.657231	0.010000
7.493429	5.657574	0.010000
7.596435	5.659671	0.010000
7.698441	5.660712	0.010000
7.800447	5.662522	0.010000
7.902452	5.660133	0.010000
8.005458	5.660889	0.010000
8.107464	5.661623	0.010000
8.210470	5.666525	0.010000
8.312476	5.666489	0.010000
8.414482	5.667808	0.010000
8.516487	5.667989	0.010000
8.618493	5.669259	0.010000
8.720499	5.671376	0.010000
8.822505	5.670973	0.010000
8.924510	5.673139	0.010000
9.026516	5.673800	0.010000
9.128522	5.674212	0.010000
9.230528	5.674954	0.010000
9.332534	5.678032	0.010000
9.435540	5.680582	0.010000
9.538546	5.681966	0.010000
9.640552	5.682125	0.010000
9.742558	5.679109	0.010000
9.845563	5.681611	0.010000
9.947569	5.684457	0.010000
10.050575	5.682103	0.010000
10.153581	5.688484	0.010000
10.256587	5.684844	0.010000
10.358593	5.689638	0.010000
10.460598	5.690930	0.010000
10.563604	5.689574	0.010000
10.665610	5.693454	0.010000
10.767616	5.693001	0.010000
10.869622	5.694446	0.010000
10.972628	5.691228	0.010000
11.075634	5.695406	0.010000
11.178639	5.692466	0.010000
11.281645	5.693877	0.010000
11.384652	5.695734	0.010000
11.486657	5.695338	0.010000
11.588663	5.699480	0.010000
11.691669	5.700345	0.010000
11.793675	5.700004	0.010000
11.895680	5.698996	0.010000
11.997686	5.699109	0.010000
12.099692	5.704162	0.010000
12.201698	5.704953	0.010000
12.303704	5.700845	0.010000
12.405710	5.705132	0.010000
12.507716	5.705568	0.010000
12.609722	5.706724	0.010000
12.711727	5.705558	0.010000
12.813733	5.706224	0.010000
12.916739	5.707749	0.010000
13.018745	5.708649	0.010000
13.120751	5.708329	0.010000
13.222756	5.710386	0.010000
13.324762	5.710506	0.010000
13.426768	5.709071	0.010000
13.529774	5.710773	0.010000
13.632780	5.711744	0.010000
13.735786	5.711687	0.010000
13.838792	5.712683	0.010000
13.940798	5.715980	0.010000
14.043804	5.713904	0.010000
14.145809	5.715981	0.010000
14.248815	5.716275	0.010000
14.351821	5.716424	0.010000
14.453827	5.718321	0.010000
14.555833	5.720646	0.010000
14.657839	5.720833	0.010000
14.759844	5.720414	0.010000
14.862850	5.721053	0.010000
14.965856	5.724570	0.010000
15.068862	5.722103	0.010000
Sample : Ni
Pre-Pulse  Slope = 1.036733E-2 +/- 1.077870E-3 Intercept = 6.052011E+0 +/- 2.620191E-3 Residue = 9.050503E-8
Heat Pulse  Slope = 9.084015E-3 +/- 4.664537E-3 Intercept = 6.057477E+0 +/- 3.518350E-2 Residue = 1.027930E-6
Post-Pulse  Slope = 8.096080E-3 +/- 1.232006E-3 Intercept = 6.073819E+0 +/- 1.544487E-2 Residue = 7.118894E-8
Sample Voltage = 7.000000E-2 Sample Voltage Uncertainty = 1.000000E-2
Sample Current = 9.976900E-1 Sample Current Uncertainty = 1.000000E-4
t(s)	T(K)	dT(K)
0.000000	6.052154	0.010000
0.112006	6.052727	0.010000
0.214012	6.054238	0.010000
0.317018	6.056088	0.010000
0.420024	6.059166	0.010000
0.522030	6.059869	0.010000
0.625036	6.058910	0.010000
0.728042	6.060849	0.010000
0.831048	6.061481	0.010000
0.933053	6.063629	0.010000
1.036059	6.064371	0.010000
1.138065	6.065824	0.010000
1.240071	6.063540	0.010000
1.343077	6.064548	0.010000
1.445083	6.065795	0.010000
1.547089	6.069682	0.010000
1.650095	6.066828	0.010000
1.752100	6.065949	0.010000
1.855106	6.068381	0.010000
1.958112	6.072045	0.010000
2.061118	6.073480	0.010000
2.163124	6.074906	0.010000
2.265130	6.075043	0.010000
2.367136	6.076525	0.010000
2.469141	6.077181	0.010000
2.571147	6.079631	0.010000
2.674153	6.076076	0.010000
2.777159	6.076360	0.010000
2.879165	6.082505	0.010000
2.981171	6.085359	0.010000
3.083176	6.085456	0.010000
3.185182	6.087657	0.010000
3.288188	6.087527	0.010000
3.391194	6.080474	0.010000
3.493200	6.092421	0.010000
3.596206	6.081024	0.010000
3.699212	6.091428	0.010000
3.802217	6.093492	0.010000
3.905223	6.100320	0.010000
4.008229	6.097473	0.010000
4.111235	6.086671	0.010000
4.214241	6.088278	0.010000
4.317247	6.097195	0.010000
4.419253	6.090377	0.010000
4.521258	6.084539	0.010000
4.623264	6.097312	0.010000
4.725270	6.083091	0.010000
4.827276	6.111750	0.010000
4.930282	6.084271	0.010000
5.033288	6.088147	0.010000
5.136294	6.113844	0.010000
5.239300	6.089819	0.010000
5.341305	6.098802	0.010000
5.443311	6.111877	0.010000
5.545317	6.117058	0.010000
5.647323	6.114463	0.010000
5.750329	6.104001	0.010000
5.853335	6.098532	0.010000
5.955340	6.096646	0.010000
6.057346	6.126752	0.010000
6.159352	6.121578	0.010000
6.262358	6.128788	0.010000
6.365364	6.109503	0.010000
6.468370	6.109341	0.010000
6.570376	6.132744	0.010000
6.673382	6.100765	0.010000
6.775387	6.105555	0.010000
6.878393	6.134091	0.010000
6.981399	6.103049	0.010000
7.083405	6.111935	0.010000
7.185411	6.112924	0.010000
7.288417	6.125804	0.010000
7.391423	6.121583	0.010000
7.493429	6.109622	0.010000
7.596435	6.133628	0.010000
7.699440	6.114866	0.010000
7.802446	6.141063	0.010000
7.904452	6.125701	0.010000
8.007458	6.140814	0.010000
8.109464	6.138889	0.010000
8.212470	6.140016	0.010000
8.314476	6.127413	0.010000
8.417481	6.139263	0.010000
8.519487	6.132705	0.010000
8.622493	6.141433	0.010000
8.724499	6.135386	0.010000
8.826505	6.138338	0.010000
8.928511	6.137422	0.010000
9.031517	6.138110	0.010000
9.133523	6.148449	0.010000
9.235528	6.150648	0.010000
9.338534	6.141741	0.010000
9.440540	6.142161	0.010000
9.542546	6.153646	0.010000
9.644552	6.147649	0.010000
9.746557	6.144802	0.010000
9.848563	6.157439	0.010000
9.950569	6.147598	0.010000
10.053575	6.154512	0.010000
10.156581	6.158652	0.010000
10.258587	6.158956	0.010000
10.360592	6.156356	0.010000
10.462598	6.156977	0.010000
10.564604	6.159439	0.010000
10.666610	6.159850	0.010000
10.768616	6.159713	0.010000
10.871622	6.162893	0.010000
10.974627	6.164397	0.010000
11.076633	6.162267	0.010000
11.178639	6.166817	0.010000
11.280645	6.166874	0.010000
11.382651	6.163754	0.010000
11.484657	6.169246	0.010000
11.586663	6.169353	0.010000
11.688669	6.171757	0.010000
11.791675	6.165533	0.010000
11.893680	6.173961	0.010000
11.995686	6.166932	0.010000
12.098692	6.168664	0.010000
12.200698	6.171884	0.010000
12.302704	6.172807	0.010000
12.404709	6.171564	0.010000
12.507715	6.178318	0.010000
12.609721	6.172200	0.010000
12.711727	6.175415	0.010000
12.814733	6.181089	0.010000
12.916739	6.179625	0.010000
13.018744	6.178632	0.010000
13.120750	6.177173	0.010000
13.222756	6.178977	0.010000
13.324762	6.179179	0.010000
13.426768	6.186393	0.010000
13.528774	6.187605	0.010000
13.630780	6.181091	0.010000
13.733786	6.184132	0.010000
13.835791	6.187224	0.010000
13.937797	6.188786	0.010000
14.039803	6.186783	0.010000
14.142809	6.189247	0.010000
14.244815	6.194296	0.010000
14.346820	6.193658	0.010000
14.448826	6.189548	0.010000
14.550832	6.191769	0.010000
14.652838	6.191728	0.010000
14.755844	6.196159	0.010000
14.858850	6.201199	0.010000
14.960855	6.194806	0.010000
15.062861	6.202491	0.010000
Sample : Ni
Pre-Pulse  Slope = 8.140195E-3 +/- 2.749310E-4 Intercept = 6.555885E+0 +/- 6.670238E-4 Residue = 5.871364E-9
Heat Pulse  Slope = 1.090540E-2 +/- 4.671087E-4 Intercept = 6.539800E+0 +/- 3.515712E-3 Residue = 1.023929E-8
Post-Pulse  Slope = 1.013334E-2 +/- 5.505364E-4 Intercept = 6.550225E+0 +/- 6.896449E-3 Residue = 1.422268E-8
Sample Voltage = 7.000000E-2 Sample Voltage Uncertainty = 1.000000E-2
Sample Current = 9.976800E-1 Sample Current Uncertainty = 1.000000E-4
t(s)	T(K)	dT(K)
0.000000	6.555558	0.010000
0.110006	6.556974	0.010000
0.212012	6.555705	0.010000
0.314018	6.556389	0.010000
0.417024	6.558192	0.010000
0.519030	6.561033	0.010000
0.622036	6.559227	0.010000
0.725041	6.560575	0.010000
0.827047	6.562811	0.010000
0.930053	6.563440	0.010000
1.033059	6.564661	0.010000
1.135065	6.565708	0.010000
1.238070	6.565059	0.010000
1.340076	6.567312	0.010000
1.442082	6.567048	0.010000
1.544088	6.568100	0.010000
1.647094	6.569426	0.010000
1.749100	6.570691	0.010000
1.852106	6.571914	0.010000
1.954112	6.572559	0.010000
2.056118	6.571691	0.010000
2.158123	6.574245	0.010000
2.260129	6.575602	0.010000
2.362135	6.574976	0.010000
2.464141	6.575421	0.010000
2.567147	6.576681	0.010000
2.669152	6.577250	0.010000
2.771158	6.579761	0.010000
2.874164	6.579406	0.010000
2.976170	6.579826	0.010000
3.078176	6.580931	0.010000
3.180182	6.581607	0.010000
3.282187	6.582963	0.010000
3.385193	6.582334	0.010000
3.487199	6.585091	0.010000
3.589205	6.584652	0.010000
3.691211	6.586717	0.010000
3.794217	6.586638	0.010000
3.897223	6.586062	0.010000
4.000229	6.588023	0.010000
4.102234	6.587422	0.010000
4.204240	6.589098	0.010000
4.306246	6.591515	0.010000
4.409252	6.592292	0.010000
4.511258	6.591703	0.010000
4.613264	6.592696	0.010000
4.715270	6.592491	0.010000
4.818275	6.595837	0.010000
4.920281	6.595902	0.010000
5.022287	6.593944	0.010000
5.124293	6.597809	0.010000
5.226299	6.598958	0.010000
5.328305	6.598180	0.010000
5.431311	6.601641	0.010000
5.534317	6.598520	0.010000
5.637322	6.599879	0.010000
5.740328	6.604155	0.010000
5.842334	6.604897	0.010000
5.944340	6.603670	0.010000
6.046346	6.604073	0.010000
6.148352	6.607512	0.010000
6.250357	6.606590	0.010000
6.353363	6.608959	0.010000
6.455369	6.608585	0.010000
6.558375	6.612180	0.010000
6.660381	6.613842	0.010000
6.762387	6.614419	0.010000
6.864392	6.613487	0.010000
6.966398	6.616944	0.010000
7.069404	6.617231	0.010000
7.171410	6.618446	0.010000
7.273416	6.618552	0.010000
7.375422	6.620428	0.010000
7.477427	6.622323	0.010000
7.579433	6.623397	0.010000
7.681439	6.623605	0.010000
7.784445	6.625383	0.010000
7.886451	6.627587	0.010000
7.988457	6.625557	0.010000
8.091463	6.628104	0.010000
8.193469	6.629660	0.010000
8.295475	6.630246	0.010000
8.397480	6.630201	0.010000
8.499486	6.631409	0.010000
8.602492	6.632842	0.010000
8.704498	6.633940	0.010000
8.807504	6.637541	0.010000
8.910510	6.636050	0.010000
9.013515	6.636887	0.010000
9.115521	6.639240	0.010000
9.218527	6.636845	0.010000
9.320533	6.641566	0.010000
9.422539	6.640497	0.010000
9.524545	6.644422	0.010000
9.627551	6.647157	0.010000
9.730556	6.648232	0.010000
9.833562	6.649220	0.010000
9.936568	6.647117	0.010000
10.038574	6.651279	0.010000
10.140580	6.651252	0.010000
10.243586	6.651375	0.010000
10.345592	6.656311	0.010000
10.448597	6.657522	0.010000
10.551603	6.657284	0.010000
10.654609	6.653224	0.010000
10.757615	6.656939	0.010000
10.860621	6.659190	0.010000
10.963627	6.663575	0.010000
11.065633	6.662761	0.010000
11.167639	6.660522	0.010000
11.270645	6.666565	0.010000
11.373651	6.667733	0.010000
11.476656	6.666913	0.010000
11.578662	6.668251	0.010000
11.680668	6.668402	0.010000
11.782674	6.671648	0.010000
11.884680	6.669019	0.010000
11.986685	6.672591	0.010000
12.088691	6.670222	0.010000
12.190697	6.673425	0.010000
12.292703	6.674794	0.010000
12.394709	6.675344	0.010000
12.496715	6.676474	0.010000
12.598721	6.676659	0.010000
12.700727	6.678821	0.010000
12.802732	6.679986	0.010000
12.904738	6.680453	0.010000
13.007744	6.682166	0.010000
13.109750	6.682083	0.010000
13.212756	6.683622	0.010000
13.315762	6.685032	0.010000
13.417767	6.685817	0.010000
13.520773	6.688448	0.010000
13.622779	6.688019	0.010000
13.725785	6.689055	0.010000
13.827791	6.691450	0.010000
13.929797	6.692857	0.010000
14.031803	6.686482	0.010000
14.134808	6.687486	0.010000
14.236814	6.691920	0.010000
14.338820	6.694788	0.010000
14.440826	6.692788	0.010000
14.543832	6.695296	0.010000
14.646838	6.701189	0.010000
14.748844	6.699594	0.010000
14.851850	6.701913	0.010000
14.953855	6.694733	0.010000
15.056861	6.687310	0.010000
Sample : Ni
Pre-Pulse  Slope = 1.074972E-2 +/- 3.121207E-3 Intercept = 7.051191E+0 +/- 7.580363E-3 Residue = 7.597394E-7
Heat Pulse  Slope = 1.048832E-2 +/- 5.872711E-3 Intercept = 7.047677E+0 +/- 4.424263E-2 Residue = 1.620711E-6
Post-Pulse  Slope = 8.823103E-3 +/- 1.476107E-3 Intercept = 7.065400E+0 +/- 1.848839E-2 Residue = 1.025207E-7
Sample Voltage = 7.500000E-2 Sample Voltage Uncertainty = 1.000000E-3
Sample Current = 9.977000E-1 Sample Current Uncertainty = 1.000000E-4
t(s)	T(K)	dT(K)
0.000000	7.056635	0.010000
0.111006	7.064537	0.010000
0.213012	7.058029	0.010000
0.315018	7.064388	0.010000
0.417024	7.054389	0.010000
0.519030	7.053563	0.010000
0.622036	7.060496	0.010000
0.725041	7.076264	0.010000
0.828047	7.065220	0.010000
0.931053	7.051233	0.010000
1.033059	7.054985	0.010000
1.135065	7.052486	0.010000
1.237071	7.054934	0.010000
1.339077	7.067177	0.010000
1.442082	7.070700	0.010000
1.544088	7.075283	0.010000
1.647094	7.081450	0.010000
1.750100	7.065272	0.010000
1.852106	7.078960	0.010000
1.954112	7.067645	0.010000
2.056118	7.085607	0.010000
2.159123	7.060872	0.010000
2.261129	7.090978	0.010000
2.364135	7.067664	0.010000
2.466141	7.078422	0.010000
2.568147	7.070366	0.010000
2.671153	7.064837	0.010000
2.773159	7.078503	0.010000
2.875165	7.071659	0.010000
2.978170	7.096086	0.010000
3.081176	7.071222	0.010000
3.184182	7.089371	0.010000
3.287188	7.094774	0.010000
3.390193	7.086523	0.010000
3.492199	7.093723	0.010000
3.595205	7.093821	0.010000
3.698211	7.094026	0.010000
3.801217	7.091701	0.010000
3.903223	7.092661	0.010000
4.005229	7.087016	0.010000
4.107234	7.094195	0.010000
4.209240	7.089909	0.010000
4.312246	7.093606	0.010000
4.414252	7.094261	0.010000
4.517258	7.094409	0.010000
4.619264	7.095966	0.010000
4.721270	7.096632	0.010000
4.824276	7.094837	0.010000
4.926281	7.098604	0.010000
5.029287	7.100030	0.010000
5.133293	7.099711	0.010000
5.235299	7.096458	0.010000
5.337305	7.096682	0.010000
5.439311	7.106875	0.010000
5.541317	7.098276	0.010000
5.643322	7.097873	0.010000
5.745328	7.108414	0.010000
5.847334	7.109542	0.010000
5.949340	7.106642	0.010000
6.051346	7.119395	0.010000
6.154352	7.112817	0.010000
6.257358	7.118863	0.010000
6.360363	7.126284	0.010000
6.462369	7.129431	0.010000
6.564375	7.113066	0.010000
6.666381	7.132128	0.010000
6.769387	7.097979	0.010000
6.871393	7.113574	0.010000
6.973399	7.135189	0.010000
7.075405	7.099392	0.010000
7.177410	7.125698	0.010000
7.279416	7.112582	0.010000
7.382422	7.113425	0.010000
7.484428	7.114199	0.010000
7.586434	7.111583	0.010000
7.688439	7.146577	0.010000
7.791445	7.134033	0.010000
7.893451	7.122596	0.010000
7.996457	7.117551	0.010000
8.098463	7.115304	0.010000
8.201469	7.149852	0.010000
8.304475	7.152365	0.010000
8.406481	7.129965	0.010000
8.508486	7.128946	0.010000
8.610492	7.130581	0.010000
8.712498	7.160118	0.010000
8.814504	7.144596	0.010000
8.916510	7.151127	0.010000
9.018516	7.139438	0.010000
9.120522	7.143574	0.010000
9.222528	7.130185	0.010000
9.324533	7.159089	0.010000
9.426539	7.142309	0.010000
9.528545	7.142971	0.010000
9.630551	7.159193	0.010000
9.733556	7.139798	0.010000
9.835562	7.146828	0.010000
9.937568	7.155246	0.010000
10.039574	7.141172	0.010000
10.141580	7.139551	0.010000
10.243586	7.163797	0.010000
10.346591	7.148749	0.010000
10.448597	7.159793	0.010000
10.550603	7.159089	0.010000
10.652609	7.151525	0.010000
10.754615	7.156349	0.010000
10.857621	7.172261	0.010000
10.959627	7.165138	0.010000
11.061633	7.157827	0.010000
11.164639	7.157137	0.010000
11.266644	7.160072	0.010000
11.369650	7.166741	0.010000
11.472656	7.171312	0.010000
11.574662	7.165678	0.010000
11.677668	7.168566	0.010000
11.780674	7.174382	0.010000
11.882679	7.172518	0.010000
11.984685	7.175286	0.010000
12.086691	7.171925	0.010000
12.188697	7.173414	0.010000
12.290703	7.175871	0.010000
12.392709	7.176732	0.010000
12.494714	7.178508	0.010000
12.597720	7.180733	0.010000
12.699726	7.175834	0.010000
12.802732	7.175007	0.010000
12.904738	7.184043	0.010000
13.006744	7.177742	0.010000
13.108749	7.178339	0.010000
13.211755	7.186653	0.010000
13.314761	7.181355	0.010000
13.417767	7.184992	0.010000
13.519773	7.183491	0.010000
13.622779	7.183357	0.010000
13.724785	7.184100	0.010000
13.826791	7.185270	0.010000
13.929797	7.187000	0.010000
14.032803	7.186026	0.010000
14.134808	7.187840	0.010000
14.237814	7.188142	0.010000
14.339820	7.187331	0.010000
14.441826	7.195545	0.010000
14.543832	7.192504	0.010000
14.645837	7.193746	0.010000
14.747843	7.197715	0.010000
14.849849	7.192418	0.010000
14.952855	7.194093	0.010000
15.054861	7.195808	0.010000
Sample : Ni
Pre-Pulse  Slope = 5.894914E-3 +/- 3.662173E-3 Intercept = 7.569431E+0 +/- 8.897672E-3 Residue = 1.045720E-6
Heat Pulse  Slope = 1.461202E-2 +/- 5.284462E-3 Intercept = 7.522655E+0 +/- 3.981661E-2 Residue = 1.314123E-6
Post-Pulse  Slope = 9.013102E-3 +/- 4.787446E-3 Intercept = 7.568907E+0 +/- 6.002327E-2 Residue = 1.083959E-6
Sample Voltage = 7.500000E-2 Sample Voltage Uncertainty = 1.000000E-3
Sample Current = 9.976900E-1 Sample Current Uncertainty = 1.000000E-5
t(s)	T(K)	dT(K)
0.000000	7.566695	0.010000
0.112006	7.567883	0.010000
0.214012	7.567964	0.010000
0.317018	7.569392	0.010000
0.419024	7.568585	0.010000
0.521030	7.573007	0.010000
0.624036	7.573233	0.010000
0.726041	7.569724	0.010000
0.829047	7.571390	0.010000
0.931053	7.572999	0.010000
1.033059	7.576243	0.010000
1.135065	7.576955	0.010000
1.237071	7.576358	0.010000
1.339077	7.574272	0.010000
1.442082	7.577376	0.010000
1.545088	7.578978	0.010000
1.648094	7.580731	0.010000
1.751100	7.577970	0.010000
1.854106	7.582618	0.010000
1.957112	7.574306	0.010000
2.059118	7.573290	0.010000
2.161124	7.593470	0.010000
2.263130	7.595809	0.010000
2.365135	7.574339	0.010000
2.468141	7.596777	0.010000
2.570147	7.569218	0.010000
2.672153	7.603350	0.010000
2.775159	7.592299	0.010000
2.877164	7.605443	0.010000
2.980171	7.576061	0.010000
3.083177	7.570484	0.010000
3.185182	7.582778	0.010000
3.287188	7.609776	0.010000
3.390194	7.600009	0.010000
3.493200	7.577412	0.010000
3.595206	7.588567	0.010000
3.698212	7.574641	0.010000
3.801218	7.576817	0.010000
3.903224	7.607253	0.010000
4.005229	7.609417	0.010000
4.107235	7.607516	0.010000
4.209241	7.618330	0.010000
4.311246	7.585760	0.010000
4.413252	7.583177	0.010000
4.516258	7.604737	0.010000
4.618264	7.618724	0.010000
4.720270	7.614618	0.010000
4.822276	7.614214	0.010000
4.925282	7.621663	0.010000
5.027287	7.623300	0.010000
5.130293	7.590073	0.010000
5.233299	7.600659	0.010000
5.336305	7.604997	0.010000
5.438311	7.594179	0.010000
5.540317	7.616573	0.010000
5.643323	7.614431	0.010000
5.745328	7.596580	0.010000
5.848334	7.597607	0.010000
5.950340	7.617942	0.010000
6.052346	7.610131	0.010000
6.155352	7.602469	0.010000
6.258358	7.634524	0.010000
6.360364	7.609411	0.010000
6.462369	7.602514	0.010000
6.564375	7.636485	0.010000
6.667381	7.603451	0.010000
6.769387	7.609471	0.010000
6.871393	7.619104	0.010000
6.973399	7.632300	0.010000
7.076405	7.632086	0.010000
7.178411	7.644712	0.010000
7.280416	7.638073	0.010000
7.382422	7.626844	0.010000
7.484428	7.615303	0.010000
7.586434	7.631248	0.010000
7.689440	7.650300	0.010000
7.792446	7.644041	0.010000
7.895452	7.632977	0.010000
7.997458	7.621292	0.010000
8.100463	7.643096	0.010000
8.202469	7.634549	0.010000
8.305475	7.655755	0.010000
8.407481	7.653603	0.010000
8.510487	7.657028	0.010000
8.612493	7.661171	0.010000
8.714499	7.646818	0.010000
8.817504	7.643168	0.010000
8.919510	7.637156	0.010000
9.021516	7.663203	0.010000
9.124522	7.665759	0.010000
9.227528	7.648160	0.010000
9.329534	7.645660	0.010000
9.432539	7.668334	0.010000
9.534545	7.645065	0.010000
9.637551	7.641215	0.010000
9.739557	7.677350	0.010000
9.841563	7.646661	0.010000
9.943569	7.647148	0.010000
10.046575	7.663596	0.010000
10.148581	7.673504	0.010000
10.250587	7.663940	0.010000
10.353592	7.683487	0.010000
10.456598	7.657129	0.010000
10.558604	7.685649	0.010000
10.661610	7.670381	0.010000
10.763616	7.680138	0.010000
10.866621	7.661122	0.010000
10.968627	7.653638	0.010000
11.071633	7.652379	0.010000
11.174639	7.655118	0.010000
11.276645	7.688914	0.010000
11.379651	7.673277	0.010000
11.481657	7.659492	0.010000
11.584662	7.685547	0.010000
11.687668	7.681186	0.010000
11.789674	7.681498	0.010000
11.892680	7.688170	0.010000
11.994686	7.671161	0.010000
12.096692	7.674048	0.010000
12.198698	7.677288	0.010000
12.301703	7.689203	0.010000
12.404709	7.692740	0.010000
12.507715	7.672990	0.010000
12.610721	7.669833	0.010000
12.713727	7.677190	0.010000
12.816733	7.686954	0.010000
12.919739	7.694868	0.010000
13.021745	7.676759	0.010000
13.124751	7.698033	0.010000
13.226757	7.674414	0.010000
13.329762	7.693555	0.010000
13.431768	7.688956	0.010000
13.533774	7.698450	0.010000
13.636780	7.702374	0.010000
13.739786	7.675762	0.010000
13.842792	7.682291	0.010000
13.945798	7.705259	0.010000
14.048804	7.707609	0.010000
14.151810	7.696570	0.010000
14.253815	7.684095	0.010000
14.356821	7.710421	0.010000
14.458827	7.707701	0.010000
14.561833	7.712926	0.010000
14.663839	7.681911	0.010000
14.765845	7.686585	0.010000
14.868851	7.685335	0.010000
14.970856	7.696865	0.010000
15.073862	7.697074	0.010000
Sample : Ni
Pre-Pulse  Slope = 7.606368E-3 +/- 5.067778E-4 Intercept = 8.073910E+0 +/- 1.230569E-3 Residue = 1.999410E-8
Heat Pulse  Slope = 9.165757E-3 +/- 6.507329E-4 Intercept = 8.066024E+0 +/- 4.904521E-3 Residue = 1.999716E-8
Post-Pulse  Slope = 7.216677E-3 +/- 4.154329E-4 Intercept = 8.085441E+0 +/- 5.209430E-3 Residue = 8.139409E-9
Sample Voltage = 7.500000E-2 Sample Voltage Uncertainty = 1.000000E-3
Sample Current = 9.977000E-1 Sample Current Uncertainty = 1.000000E-4
t(s)	T(K)	dT(K)
0.000000	8.074150	0.010000
0.111006	8.076144	0.010000
0.213012	8.074041	0.010000
0.315018	8.074795	0.010000
0.417024	8.076005	0.010000
0.520030	8.076010	0.010000
0.623036	8.080946	0.010000
0.726041	8.078574	0.010000
0.828047	8.081603	0.010000
0.930053	8.081131	0.010000
1.033059	8.083023	0.010000
1.135065	8.080104	0.010000
1.238071	8.080696	0.010000
1.341077	8.082876	0.010000
1.444083	8.082615	0.010000
1.546088	8.086976	0.010000
1.648094	8.088033	0.010000
1.750100	8.086042	0.010000
1.852106	8.090539	0.010000
1.955112	8.089090	0.010000
2.057117	8.090603	0.010000
2.159123	8.092501	0.010000
2.261129	8.090933	0.010000
2.364135	8.091318	0.010000
2.466141	8.090733	0.010000
2.568147	8.094303	0.010000
2.670153	8.096085	0.010000
2.773159	8.095499	0.010000
2.876164	8.096227	0.010000
2.978170	8.095320	0.010000
3.080176	8.097958	0.010000
3.183182	8.099040	0.010000
3.285188	8.099120	0.010000
3.388194	8.098684	0.010000
3.491199	8.100956	0.010000
3.593205	8.101504	0.010000
3.696211	8.100069	0.010000
3.799217	8.102788	0.010000
3.901223	8.102738	0.010000
4.004229	8.104756	0.010000
4.106235	8.103544	0.010000
4.208241	8.105613	0.010000
4.311246	8.107280	0.010000
4.413252	8.105580	0.010000
4.515258	8.108449	0.010000
4.618264	8.109022	0.010000
4.720270	8.107247	0.010000
4.823276	8.108642	0.010000
4.925282	8.112958	0.010000
5.028287	8.108913	0.010000
5.131293	8.112964	0.010000
5.233299	8.115840	0.010000
5.335305	8.111684	0.010000
5.437311	8.114341	0.010000
5.539317	8.117450	0.010000
5.642323	8.115365	0.010000
5.744328	8.117046	0.010000
5.847334	8.116918	0.010000
5.949340	8.119105	0.010000
6.052346	8.120125	0.010000
6.155352	8.124500	0.010000
6.257358	8.123227	0.010000
6.359364	8.124434	0.010000
6.462369	8.124325	0.010000
6.564375	8.126672	0.010000
6.666381	8.127517	0.010000
6.769387	8.128772	0.010000
6.871393	8.128726	0.010000
6.974399	8.132251	0.010000
7.077405	8.129943	0.010000
7.180411	8.131004	0.010000
7.283417	8.132065	0.010000
7.385422	8.134559	0.010000
7.488428	8.133905	0.010000
7.590434	8.136388	0.010000
7.693440	8.134967	0.010000
7.796446	8.135636	0.010000
7.899452	8.137694	0.010000
8.001458	8.140552	0.010000
8.104464	8.138148	0.010000
8.206470	8.143407	0.010000
8.308475	8.140991	0.010000
8.410481	8.145849	0.010000
8.512487	8.140881	0.010000
8.615493	8.146841	0.010000
8.718499	8.146959	0.010000
8.820505	8.147111	0.010000
8.923511	8.147570	0.010000
9.026516	8.150143	0.010000
9.128522	8.150709	0.010000
9.230528	8.151464	0.010000
9.332534	8.150316	0.010000
9.435540	8.153544	0.010000
9.538546	8.155204	0.010000
9.640552	8.152461	0.010000
9.743557	8.153578	0.010000
9.845563	8.154777	0.010000
9.948569	8.156481	0.010000
10.050575	8.156746	0.010000
10.152581	8.159942	0.010000
10.254587	8.160028	0.010000
10.356592	8.160890	0.010000
10.459598	8.160496	0.010000
10.562604	8.161593	0.010000
10.665610	8.162457	0.010000
10.767616	8.162571	0.010000
10.869622	8.163373	0.010000
10.972628	8.164060	0.010000
11.074634	8.165595	0.010000
11.176639	8.164793	0.010000
11.279645	8.166655	0.010000
11.382651	8.167960	0.010000
11.485657	8.168757	0.010000
11.588663	8.167569	0.010000
11.690669	8.169592	0.010000
11.793674	8.170111	0.010000
11.896680	8.172549	0.010000
11.998686	8.172508	0.010000
12.100692	8.173212	0.010000
12.202698	8.175102	0.010000
12.305704	8.174223	0.010000
12.407710	8.175858	0.010000
12.510715	8.174242	0.010000
12.613721	8.175460	0.010000
12.715727	8.178827	0.010000
12.817733	8.177134	0.010000
12.920739	8.178604	0.010000
13.022745	8.179085	0.010000
13.124751	8.181016	0.010000
13.226757	8.181717	0.010000
13.329762	8.180501	0.010000
13.432768	8.182564	0.010000
13.535774	8.182385	0.010000
13.637780	8.184933	0.010000
13.740786	8.184949	0.010000
13.842792	8.185597	0.010000
13.944798	8.184519	0.010000
14.046803	8.186556	0.010000
14.148809	8.186645	0.010000
14.251815	8.188146	0.010000
14.353821	8.188109	0.010000
14.456827	8.189998	0.010000
14.559833	8.191191	0.010000
14.661839	8.191682	0.010000
14.763844	8.190170	0.010000
14.866850	8.191859	0.010000
14.968856	8.194675	0.010000
15.070862	8.194037	0.010000
Sample : Ni
Pre-Pulse  Slope = 6.677516E-3 +/- 5.766873E-4 Intercept = 8.622065E+0 +/- 1.401980E-3 Residue = 2.595492E-8
Heat Pulse  Slope = 7.917414E-3 +/- 8.104195E-4 Intercept = 8.615560E+0 +/- 6.104108E-3 Residue = 3.087321E-8
Post-Pulse  Slope = 8.064928E-3 +/- 3.878866E-4 Intercept = 8.616074E+0 +/- 4.860973E-3 Residue = 7.110396E-9
Sample Voltage = 7.500000E-2 Sample Voltage Uncertainty = 1.000000E-3
Sample Current = 9.976900E-1 Sample Current Uncertainty = 1.000000E-5
t(s)	T(K)	dT(K)
0.000000	8.621949	0.010000
0.111006	8.620590	0.010000
0.214012	8.622645	0.010000
0.316018	8.621615	0.010000
0.419024	8.627357	0.010000
0.521030	8.627975	0.010000
0.624036	8.627400	0.010000
0.727042	8.626358	0.010000
0.829048	8.627382	0.010000
0.932054	8.631180	0.010000
1.034059	8.626188	0.010000
1.136065	8.627662	0.010000
1.239071	8.630850	0.010000
1.341077	8.628992	0.010000
1.443082	8.629731	0.010000
1.546088	8.630533	0.010000
1.649095	8.637014	0.010000
1.752100	8.635041	0.010000
1.855106	8.632925	0.010000
1.957112	8.633276	0.010000
2.060118	8.636935	0.010000
2.162124	8.636764	0.010000
2.264130	8.638645	0.010000
2.367136	8.635629	0.010000
2.470141	8.639944	0.010000
2.572147	8.638708	0.010000
2.675153	8.640008	0.010000
2.777159	8.641246	0.010000
2.880165	8.641065	0.010000
2.982171	8.641927	0.010000
3.084177	8.641947	0.010000
3.187182	8.642125	0.010000
3.290188	8.646341	0.010000
3.392194	8.645210	0.010000
3.495200	8.644723	0.010000
3.597206	8.646811	0.010000
3.700212	8.648166	0.010000
3.802217	8.645426	0.010000
3.904223	8.648566	0.010000
4.006229	8.646644	0.010000
4.108235	8.651425	0.010000
4.211241	8.649530	0.010000
4.313247	8.652288	0.010000
4.415253	8.651658	0.010000
4.517259	8.650117	0.010000
4.620265	8.656733	0.010000
4.723270	8.653623	0.010000
4.826276	8.655897	0.010000
4.929282	8.652151	0.010000
5.031288	8.656211	0.010000
5.133294	8.659741	0.010000
5.235300	8.653980	0.010000
5.337306	8.660598	0.010000
5.439311	8.659964	0.010000
5.541317	8.662318	0.010000
5.643323	8.663002	0.010000
5.745328	8.658780	0.010000
5.847334	8.663399	0.010000
5.949340	8.663011	0.010000
6.051346	8.664766	0.010000
6.153352	8.665301	0.010000
6.255358	8.664874	0.010000
6.357364	8.665902	0.010000
6.460370	8.665930	0.010000
6.562376	8.667176	0.010000
6.664381	8.670409	0.010000
6.766387	8.668865	0.010000
6.868393	8.669150	0.010000
6.970399	8.669778	0.010000
7.073405	8.671839	0.010000
7.176411	8.672405	0.010000
7.279417	8.671452	0.010000
7.381422	8.676910	0.010000
7.483428	8.671757	0.010000
7.586434	8.678430	0.010000
7.688440	8.673963	0.010000
7.790446	8.676659	0.010000
7.892451	8.675583	0.010000
7.994457	8.677008	0.010000
8.096463	8.680521	0.010000
8.199469	8.681666	0.010000
8.301475	8.684292	0.010000
8.403481	8.681428	0.010000
8.505486	8.683808	0.010000
8.608492	8.682054	0.010000
8.711498	8.683026	0.010000
8.814504	8.684232	0.010000
8.916510	8.690238	0.010000
9.018516	8.686941	0.010000
9.120522	8.690627	0.010000
9.222528	8.688551	0.010000
9.325533	8.688595	0.010000
9.428539	8.693111	0.010000
9.530545	8.694914	0.010000
9.632551	8.695372	0.010000
9.734557	8.694112	0.010000
9.836563	8.695929	0.010000
9.938569	8.695316	0.010000
10.041574	8.695971	0.010000
10.144580	8.699118	0.010000
10.246586	8.699292	0.010000
10.348592	8.699545	0.010000
10.450598	8.701321	0.010000
10.552604	8.701934	0.010000
10.654610	8.702759	0.010000
10.756615	8.703200	0.010000
10.859621	8.704295	0.010000
10.961627	8.706207	0.010000
11.064633	8.705914	0.010000
11.167639	8.706231	0.010000
11.270645	8.706693	0.010000
11.373651	8.707367	0.010000
11.476656	8.710002	0.010000
11.578662	8.709402	0.010000
11.681668	8.711132	0.010000
11.783674	8.710344	0.010000
11.886680	8.711598	0.010000
11.989686	8.713172	0.010000
12.092692	8.712526	0.010000
12.195698	8.713464	0.010000
12.298704	8.715833	0.010000
12.401710	8.715854	0.010000
12.504715	8.717451	0.010000
12.606721	8.717547	0.010000
12.708727	8.717805	0.010000
12.810733	8.719443	0.010000
12.912739	8.719462	0.010000
13.014744	8.721236	0.010000
13.116750	8.720988	0.010000
13.219756	8.724163	0.010000
13.322762	8.723731	0.010000
13.425768	8.725577	0.010000
13.528774	8.723054	0.010000
13.630780	8.726687	0.010000
13.733786	8.725755	0.010000
13.835792	8.728987	0.010000
13.937797	8.728849	0.010000
14.039803	8.728594	0.010000
14.141809	8.729513	0.010000
14.244815	8.727756	0.010000
14.346821	8.729360	0.010000
14.448826	8.732792	0.010000
14.551832	8.732762	0.010000
14.653838	8.736385	0.010000
14.755844	8.735177	0.010000
14.857850	8.735192	0.010000
14.959856	8.738635	0.010000
15.062861	8.737500	0.010000
Sample : Ni
Pre-Pulse  Slope = 6.406978E-3 +/- 5.257605E-4 Intercept = 9.180934E+0 +/- 1.275271E-3 Residue = 2.158654E-8
Heat Pulse  Slope = 8.479959E-3 +/- 7.633023E-4 Intercept = 9.167490E+0 +/- 5.755883E-3 Residue = 2.755752E-8
Post-Pulse  Slope = 6.833986E-3 +/- 7.135542E-4 Intercept = 9.187070E+0 +/- 8.952591E-3 Residue = 2.396195E-8
Sample Voltage = 7.500000E-2 Sample Voltage Uncertainty = 1.000000E-3
Sample Current = 9.976900E-1 Sample Current Uncertainty = 1.000000E-5
t(s)	T(K)	dT(K)
0.000000	9.181800	0.010000
0.105006	9.181363	0.010000
0.208012	9.182238	0.010000
0.311018	9.182262	0.010000
0.413023	9.182563	0.010000
0.515029	9.184977	0.010000
0.617035	9.184393	0.010000
0.719041	9.186378	0.010000
0.822047	9.187319	0.010000
0.925053	9.186319	0.010000
1.027059	9.185255	0.010000
1.129065	9.186507	0.010000
1.232070	9.188045	0.010000
1.335076	9.192841	0.010000
1.437082	9.188680	0.010000
1.540088	9.192427	0.010000
1.643094	9.193339	0.010000
1.746100	9.188549	0.010000
1.848106	9.195266	0.010000
1.951112	9.195182	0.010000
2.053117	9.194372	0.010000
2.156123	9.192250	0.010000
2.258129	9.194117	0.010000
2.361135	9.197648	0.010000
2.464141	9.195862	0.010000
2.567147	9.197529	0.010000
2.669153	9.197469	0.010000
2.772159	9.198587	0.010000
2.875165	9.199155	0.010000
2.977170	9.198409	0.010000
3.079176	9.201524	0.010000
3.181182	9.201622	0.010000
3.284188	9.201254	0.010000
3.387194	9.202039	0.010000
3.489200	9.203310	0.010000
3.591206	9.205833	0.010000
3.693211	9.205303	0.010000
3.795217	9.205421	0.010000
3.897223	9.205341	0.010000
4.000229	9.208086	0.010000
4.102235	9.206579	0.010000
4.205241	9.210905	0.010000
4.307246	9.208473	0.010000
4.410252	9.206714	0.010000
4.512258	9.207588	0.010000
4.615264	9.207726	0.010000
4.718270	9.214662	0.010000
4.821276	9.213713	0.010000
4.923282	9.212894	0.010000
5.025288	9.213619	0.010000
5.128294	9.214601	0.010000
5.232299	9.213753	0.010000
5.334305	9.216242	0.010000
5.437311	9.217007	0.010000
5.539317	9.218251	0.010000
5.642323	9.217391	0.010000
5.745328	9.218460	0.010000
5.847334	9.219046	0.010000
5.950340	9.220149	0.010000
6.053346	9.222326	0.010000
6.156352	9.219575	0.010000
6.259358	9.220920	0.010000
6.362364	9.219464	0.010000
6.465370	9.219042	0.010000
6.567376	9.219859	0.010000
6.670382	9.223802	0.010000
6.772388	9.226835	0.010000
6.875393	9.227909	0.010000
6.978399	9.229029	0.010000
7.081405	9.224744	0.010000
7.184411	9.229557	0.010000
7.287417	9.229880	0.010000
7.390423	9.229524	0.010000
7.493429	9.231897	0.010000
7.596435	9.232416	0.010000
7.698441	9.231953	0.010000
7.801446	9.233976	0.010000
7.903452	9.234967	0.010000
8.005458	9.235890	0.010000
8.107464	9.235394	0.010000
8.209469	9.237703	0.010000
8.311475	9.237584	0.010000
8.414481	9.237853	0.010000
8.517487	9.240905	0.010000
8.619493	9.239254	0.010000
8.722499	9.240639	0.010000
8.825505	9.240741	0.010000
8.928511	9.245909	0.010000
9.031517	9.242330	0.010000
9.134522	9.245698	0.010000
9.236528	9.247481	0.010000
9.339534	9.249014	0.010000
9.442540	9.248864	0.010000
9.545546	9.247273	0.010000
9.648552	9.246320	0.010000
9.751558	9.248759	0.010000
9.854564	9.248619	0.010000
9.956570	9.251247	0.010000
10.058575	9.251795	0.010000
10.161581	9.256651	0.010000
10.263587	9.252961	0.010000
10.365593	9.257139	0.010000
10.467599	9.255709	0.010000
10.570605	9.260574	0.010000
10.673611	9.258432	0.010000
10.775616	9.256918	0.010000
10.877622	9.258352	0.010000
10.980628	9.259882	0.010000
11.082634	9.261492	0.010000
11.185640	9.264261	0.010000
11.287646	9.265874	0.010000
11.390652	9.263748	0.010000
11.492657	9.266094	0.010000
11.595663	9.267667	0.010000
11.697669	9.265639	0.010000
11.799675	9.264494	0.010000
11.902681	9.271399	0.010000
12.005687	9.267585	0.010000
12.108693	9.271236	0.010000
12.211699	9.273482	0.010000
12.313704	9.270115	0.010000
12.416710	9.270079	0.010000
12.518716	9.273497	0.010000
12.620722	9.271953	0.010000
12.722728	9.271308	0.010000
12.824734	9.275525	0.010000
12.926739	9.274740	0.010000
13.028745	9.276771	0.010000
13.130751	9.277921	0.010000
13.232757	9.279173	0.010000
13.335763	9.279800	0.010000
13.438769	9.278871	0.010000
13.540774	9.279827	0.010000
13.642780	9.279843	0.010000
13.744786	9.280283	0.010000
13.847792	9.280018	0.010000
13.950798	9.283058	0.010000
14.052804	9.282787	0.010000
14.154809	9.285118	0.010000
14.256815	9.285812	0.010000
14.358821	9.285895	0.010000
14.460827	9.288094	0.010000
14.562833	9.288830	0.010000
14.664839	9.287793	0.010000
14.766845	9.289461	0.010000
14.868850	9.290371	0.010000
14.970856	9.289654	0.010000
15.072862	9.290297	0.010000
Sample : Ni
Pre-Pulse  Slope = 6.210612E-3 +/- 5.988246E-4 Intercept = 9.520892E+0 +/- 1.454108E-3 Residue = 2.790510E-8
Heat Pulse  Slope = 8.130605E-3 +/- 4.958587E-4 Intercept = 9.510552E+0 +/- 3.738777E-3 Residue = 1.160354E-8
Post-Pulse  Slope = 6.119129E-3 +/- 5.681545E-4 Intercept = 9.532541E+0 +/- 7.124947E-3 Residue = 1.520203E-8
Sample Voltage = 7.500000E-2 Sample Voltage Uncertainty = 1.000000E-3
Sample Current = 9.977000E-1 Sample Current Uncertainty = 1.000000E-5
t(s)	T(K)	dT(K)
0.000000	9.518097	0.010000
0.111007	9.521859	0.010000
0.214013	9.521266	0.010000
0.317019	9.523222	0.010000
0.419024	9.520569	0.010000
0.521030	9.522968	0.010000
0.623036	9.523237	0.010000
0.725041	9.527514	0.010000
0.827047	9.526472	0.010000
0.929053	9.525481	0.010000
1.032059	9.525588	0.010000
1.135065	9.529144	0.010000
1.237071	9.529945	0.010000
1.340077	9.527483	0.010000
1.443083	9.528735	0.010000
1.546089	9.531763	0.010000
1.649095	9.531874	0.010000
1.751101	9.531940	0.010000
1.854106	9.534053	0.010000
1.957112	9.530563	0.010000
2.059118	9.533994	0.010000
2.161124	9.535617	0.010000
2.263130	9.536851	0.010000
2.365135	9.537495	0.010000
2.467141	9.533843	0.010000
2.569147	9.538592	0.010000
2.672153	9.534948	0.010000
2.774159	9.539609	0.010000
2.877165	9.540907	0.010000
2.979170	9.540845	0.010000
3.081176	9.536612	0.010000
3.183182	9.539645	0.010000
3.285188	9.540251	0.010000
3.388194	9.542818	0.010000
3.490200	9.543814	0.010000
3.592206	9.542176	0.010000
3.694211	9.542393	0.010000
3.796217	9.542317	0.010000
3.898223	9.547658	0.010000
4.001229	9.546293	0.010000
4.104235	9.544235	0.010000
4.207241	9.548048	0.010000
4.310247	9.550020	0.010000
4.413253	9.548121	0.010000
4.516258	9.548060	0.010000
4.618264	9.549805	0.010000
4.720270	9.551530	0.010000
4.823276	9.551961	0.010000
4.926282	9.551960	0.010000
5.029288	9.553405	0.010000
5.132294	9.552776	0.010000
5.234300	9.553661	0.010000
5.336306	9.554425	0.010000
5.438311	9.554954	0.010000
5.541317	9.556541	0.010000
5.644323	9.556737	0.010000
5.747329	9.557497	0.010000
5.850335	9.556982	0.010000
5.953341	9.559306	0.010000
6.055346	9.558590	0.010000
6.158352	9.560338	0.010000
6.260358	9.561764	0.010000
6.363364	9.561610	0.010000
6.466370	9.562990	0.010000
6.568376	9.564210	0.010000
6.670382	9.563942	0.010000
6.773387	9.564786	0.010000
6.875393	9.567785	0.010000
6.978399	9.567494	0.010000
7.081405	9.568566	0.010000
7.183411	9.570106	0.010000
7.286417	9.569880	0.010000
7.388422	9.570190	0.010000
7.490428	9.572093	0.010000
7.593434	9.572866	0.010000
7.696440	9.572127	0.010000
7.799446	9.575898	0.010000
7.901452	9.574226	0.010000
8.003458	9.576484	0.010000
8.106464	9.577973	0.010000
8.208469	9.575293	0.010000
8.310475	9.578204	0.010000
8.413481	9.581269	0.010000
8.516487	9.577827	0.010000
8.619493	9.581287	0.010000
8.721499	9.581855	0.010000
8.823505	9.580662	0.010000
8.926511	9.581996	0.010000
9.028516	9.585922	0.010000
9.131522	9.584076	0.010000
9.233528	9.583964	0.010000
9.335534	9.586975	0.010000
9.438540	9.585133	0.010000
9.541546	9.584979	0.010000
9.644552	9.590835	0.010000
9.746558	9.587088	0.010000
9.849564	9.590039	0.010000
9.951569	9.594031	0.010000
10.053575	9.589544	0.010000
10.155581	9.590099	0.010000
10.257587	9.594724	0.010000
10.360593	9.592250	0.010000
10.463599	9.596478	0.010000
10.566605	9.594648	0.010000
10.669611	9.597873	0.010000
10.771616	9.597690	0.010000
10.873622	9.598274	0.010000
10.975628	9.597290	0.010000
11.078634	9.599518	0.010000
11.180640	9.600545	0.010000
11.282646	9.600227	0.010000
11.384651	9.602329	0.010000
11.487657	9.601592	0.010000
11.589663	9.605454	0.010000
11.691669	9.606994	0.010000
11.793675	9.606559	0.010000
11.895680	9.605726	0.010000
11.998686	9.607610	0.010000
12.100692	9.606298	0.010000
12.202698	9.606972	0.010000
12.305704	9.607109	0.010000
12.408710	9.606377	0.010000
12.511716	9.606399	0.010000
12.613722	9.610740	0.010000
12.715727	9.609209	0.010000
12.817733	9.611478	0.010000
12.920739	9.610973	0.010000
13.022745	9.611460	0.010000
13.124751	9.612920	0.010000
13.227757	9.612779	0.010000
13.330762	9.614950	0.010000
13.433769	9.614335	0.010000
13.535774	9.616667	0.010000
13.638780	9.617277	0.010000
13.740786	9.615962	0.010000
13.842792	9.617331	0.010000
13.945798	9.618072	0.010000
14.048804	9.618398	0.010000
14.151810	9.617827	0.010000
14.254816	9.621232	0.010000
14.356822	9.621809	0.010000
14.458827	9.621880	0.010000
14.561833	9.621326	0.010000
14.663839	9.624250	0.010000
14.766845	9.624170	0.010000
14.868851	9.622430	0.010000
14.970856	9.624988	0.010000
15.072862	9.626183	0.010000
Sample : Ni
Pre-Pulse  Slope = 7.846906E-3 +/- 1.400417E-3 Intercept = 1.001032E+1 +/- 3.405850E-3 Residue = 1.530728E-7
Heat Pulse  Slope = 9.210429E-3 +/- 1.596481E-3 Intercept = 1.000658E+1 +/- 1.202698E-2 Residue = 1.199499E-7
Post-Pulse  Slope = 6.639467E-3 +/- 1.877289E-3 Intercept = 1.002570E+1 +/- 2.352221E-2 Residue = 1.657727E-7
Sample Voltage = 7.500000E-2 Sample Voltage Uncertainty = 1.000000E-3
Sample Current = 9.976900E-1 Sample Current Uncertainty = 1.000000E-5
t(s)	T(K)	dT(K)
0.000000	10.008839	0.010000
0.112007	10.012000	0.010000
0.215013	10.014235	0.010000
0.317019	10.004803	0.010000
0.420024	10.007618	0.010000
0.523030	10.018126	0.010000
0.625036	10.018134	0.010000
0.727042	10.016364	0.010000
0.829048	10.015413	0.010000
0.932054	10.021678	0.010000
1.035059	10.013659	0.010000
1.138065	10.021025	0.010000
1.241071	10.022850	0.010000
1.343077	10.022376	0.010000
1.446083	10.024216	0.010000
1.548089	10.022087	0.010000
1.651094	10.024933	0.010000
1.753100	10.018393	0.010000
1.855106	10.024679	0.010000
1.957112	10.023961	0.010000
2.059118	10.018743	0.010000
2.162124	10.028534	0.010000
2.265130	10.029733	0.010000
2.367136	10.029081	0.010000
2.470141	10.026073	0.010000
2.573147	10.023185	0.010000
2.675153	10.029980	0.010000
2.777159	10.025975	0.010000
2.880165	10.030816	0.010000
2.983171	10.037045	0.010000
3.086177	10.038413	0.010000
3.189183	10.040548	0.010000
3.291188	10.029488	0.010000
3.394194	10.042346	0.010000
3.496200	10.032655	0.010000
3.599206	10.043240	0.010000
3.701212	10.037203	0.010000
3.803218	10.045651	0.010000
3.906224	10.044854	0.010000
4.008229	10.046210	0.010000
4.111235	10.046519	0.010000
4.213241	10.044864	0.010000
4.315247	10.046691	0.010000
4.417253	10.045479	0.010000
4.519258	10.045538	0.010000
4.621264	10.047196	0.010000
4.723270	10.047339	0.010000
4.825276	10.047463	0.010000
4.927282	10.049971	0.010000
5.029288	10.048944	0.010000
5.132294	10.052207	0.010000
5.235300	10.055545	0.010000
5.337306	10.052429	0.010000
5.439312	10.057085	0.010000
5.541317	10.052216	0.010000
5.643323	10.059003	0.010000
5.745329	10.058648	0.010000
5.847334	10.056022	0.010000
5.949340	10.060988	0.010000
6.052346	10.055807	0.010000
6.155352	10.064792	0.010000
6.257358	10.062101	0.010000
6.359364	10.067393	0.010000
6.461370	10.067737	0.010000
6.563375	10.067980	0.010000
6.665381	10.071350	0.010000
6.767387	10.071928	0.010000
6.869393	10.072570	0.010000
6.971399	10.075159	0.010000
7.073405	10.066801	0.010000
7.176411	10.075162	0.010000
7.279417	10.075572	0.010000
7.381423	10.072229	0.010000
7.483428	10.073859	0.010000
7.585434	10.072514	0.010000
7.688440	10.073010	0.010000
7.790446	10.072958	0.010000
7.893452	10.076387	0.010000
7.996458	10.082396	0.010000
8.099463	10.083335	0.010000
8.201469	10.084248	0.010000
8.303475	10.086905	0.010000
8.406481	10.086098	0.010000
8.509487	10.087789	0.010000
8.611493	10.080077	0.010000
8.713499	10.081067	0.010000
8.816504	10.090301	0.010000
8.919510	10.092484	0.010000
9.021516	10.092256	0.010000
9.123522	10.085658	0.010000
9.225528	10.092774	0.010000
9.327534	10.087663	0.010000
9.429540	10.090309	0.010000
9.531545	10.085833	0.010000
9.634551	10.091615	0.010000
9.736557	10.090717	0.010000
9.838563	10.095160	0.010000
9.940569	10.091281	0.010000
10.043575	10.102948	0.010000
10.145580	10.091996	0.010000
10.247586	10.097473	0.010000
10.349592	10.094321	0.010000
10.451598	10.103546	0.010000
10.553604	10.092498	0.010000
10.656610	10.092201	0.010000
10.759615	10.102186	0.010000
10.862621	10.099094	0.010000
10.965627	10.104407	0.010000
11.067633	10.096157	0.010000
11.169639	10.102541	0.010000
11.271645	10.095766	0.010000
11.374651	10.102759	0.010000
11.476656	10.098712	0.010000
11.579662	10.101493	0.010000
11.682668	10.107717	0.010000
11.784674	10.109202	0.010000
11.886680	10.100112	0.010000
11.988686	10.108512	0.010000
12.091692	10.106403	0.010000
12.193697	10.103087	0.010000
12.295703	10.108396	0.010000
12.397709	10.108813	0.010000
12.500715	10.105244	0.010000
12.602721	10.113507	0.010000
12.704727	10.107122	0.010000
12.806733	10.115124	0.010000
12.908739	10.113732	0.010000
13.011744	10.106872	0.010000
13.114750	10.117589	0.010000
13.217756	10.106658	0.010000
13.319762	10.118726	0.010000
13.422768	10.119270	0.010000
13.524774	10.118111	0.010000
13.626780	10.121653	0.010000
13.728786	10.112330	0.010000
13.830791	10.108705	0.010000
13.933797	10.117891	0.010000
14.035803	10.116445	0.010000
14.138809	10.112571	0.010000
14.240815	10.124682	0.010000
14.343821	10.114171	0.010000
14.445827	10.114581	0.010000
14.547832	10.114772	0.010000
14.650838	10.124931	0.010000
14.752844	10.126870	0.010000
14.855850	10.127794	0.010000
14.958856	10.125576	0.010000
15.060862	10.117243	0.010000
Sample : Ni
Pre-Pulse  Slope = 6.869379E-3 +/- 6.399060E-4 Intercept = 1.048169E+1 +/- 1.554589E-3 Residue = 3.199380E-8
Heat Pulse  Slope = 7.507071E-3 +/- 1.135406E-3 Intercept = 1.047695E+1 +/- 8.562279E-3 Residue = 6.091098E-8
Post-Pulse  Slope = 7.390100E-3 +/- 8.559444E-4 Intercept = 1.047816E+1 +/- 1.073928E-2 Residue = 3.445746E-8
Sample Voltage = 7.500000E-2 Sample Voltage Uncertainty = 1.000000E-3
Sample Current = 9.976900E-1 Sample Current Uncertainty = 1.000000E-5
t(s)	T(K)	dT(K)
0.001000	10.478728	0.010000
0.112006	10.482779	0.010000
0.214012	10.482854	0.010000
0.316018	10.486497	0.010000
0.418024	10.486564	0.010000
0.520030	10.486055	0.010000
0.622036	10.482374	0.010000
0.724041	10.482590	0.010000
0.827047	10.488983	0.010000
0.929053	10.490453	0.010000
1.031059	10.489035	0.010000
1.134065	10.484093	0.010000
1.236071	10.489926	0.010000
1.339077	10.494924	0.010000
1.441082	10.492461	0.010000
1.543088	10.492454	0.010000
1.646094	10.495934	0.010000
1.749100	10.493441	0.010000
1.851106	10.496424	0.010000
1.954112	10.495237	0.010000
2.057117	10.495901	0.010000
2.159123	10.497547	0.010000
2.262129	10.498643	0.010000
2.364135	10.497855	0.010000
2.467141	10.498154	0.010000
2.569147	10.501045	0.010000
2.672153	10.499539	0.010000
2.775159	10.500171	0.010000
2.877164	10.500300	0.010000
2.980170	10.502549	0.010000
3.083176	10.502125	0.010000
3.186182	10.502990	0.010000
3.289188	10.503063	0.010000
3.392194	10.505474	0.010000
3.495200	10.505138	0.010000
3.597206	10.506050	0.010000
3.699212	10.507046	0.010000
3.801218	10.507737	0.010000
3.903223	10.508284	0.010000
4.006229	10.508198	0.010000
4.109235	10.509031	0.010000
4.212241	10.510829	0.010000
4.315247	10.510461	0.010000
4.418252	10.511571	0.010000
4.521258	10.512072	0.010000
4.623264	10.509401	0.010000
4.725270	10.515627	0.010000
4.827276	10.516738	0.010000
4.929282	10.514454	0.010000
5.032288	10.520115	0.010000
5.135293	10.515914	0.010000
5.238299	10.516968	0.010000
5.340305	10.517950	0.010000
5.442311	10.519353	0.010000
5.544317	10.519038	0.010000
5.646323	10.518502	0.010000
5.748329	10.523046	0.010000
5.850335	10.516875	0.010000
5.953341	10.525117	0.010000
6.055346	10.522866	0.010000
6.157352	10.526036	0.010000
6.260358	10.521018	0.010000
6.363364	10.525057	0.010000
6.466370	10.524951	0.010000
6.569376	10.529492	0.010000
6.671381	10.531608	0.010000
6.774387	10.523711	0.010000
6.877393	10.526135	0.010000
6.980399	10.525519	0.010000
7.082405	10.528799	0.010000
7.185411	10.533759	0.010000
7.287417	10.530207	0.010000
7.390423	10.532264	0.010000
7.493428	10.537793	0.010000
7.595434	10.533169	0.010000
7.697440	10.531376	0.010000
7.799446	10.534246	0.010000
7.902452	10.538019	0.010000
8.004458	10.538756	0.010000
8.106463	10.540449	0.010000
8.208469	10.538148	0.010000
8.311475	10.538883	0.010000
8.413481	10.537985	0.010000
8.515487	10.539180	0.010000
8.618493	10.540981	0.010000
8.724499	10.541590	0.010000
8.828505	10.542181	0.010000
8.931511	10.548559	0.010000
9.033516	10.541810	0.010000
9.135522	10.543330	0.010000
9.237528	10.544993	0.010000
9.340534	10.551099	0.010000
9.443540	10.551619	0.010000
9.545546	10.555611	0.010000
9.648552	10.546327	0.010000
9.750557	10.548701	0.010000
9.852563	10.555814	0.010000
9.954569	10.557953	0.010000
10.056575	10.553031	0.010000
10.159581	10.553549	0.010000
10.262587	10.559987	0.010000
10.364593	10.558758	0.010000
10.466599	10.560508	0.010000
10.568604	10.562607	0.010000
10.671610	10.558296	0.010000
10.774616	10.560136	0.010000
10.877622	10.561463	0.010000
10.979628	10.559948	0.010000
11.082634	10.559261	0.010000
11.185640	10.558424	0.010000
11.288646	10.566242	0.010000
11.391652	10.561377	0.010000
11.494658	10.562142	0.010000
11.595663	10.562670	0.010000
11.698669	10.562164	0.010000
11.800675	10.567664	0.010000
11.903681	10.568577	0.010000
12.005687	10.566632	0.010000
12.108693	10.569783	0.010000
12.210698	10.572332	0.010000
12.312704	10.568232	0.010000
12.415710	10.569280	0.010000
12.518716	10.570264	0.010000
12.620722	10.569304	0.010000
12.722728	10.569830	0.010000
12.825734	10.572490	0.010000
12.927739	10.572273	0.010000
13.029745	10.572563	0.010000
13.131751	10.576898	0.010000
13.233757	10.574916	0.010000
13.336763	10.576811	0.010000
13.438768	10.580016	0.010000
13.540774	10.577742	0.010000
13.642780	10.578904	0.010000
13.744786	10.581111	0.010000
13.846792	10.581213	0.010000
13.948798	10.580315	0.010000
14.051804	10.582334	0.010000
14.154809	10.582668	0.010000
14.256815	10.581006	0.010000
14.358821	10.580628	0.010000
14.460827	10.583730	0.010000
14.562833	10.586129	0.010000
14.664839	10.584948	0.010000
14.766845	10.587253	0.010000
14.868850	10.588812	0.010000
14.970856	10.587031	0.010000
15.072862	10.588529	0.010000
Sample : Ni
Pre-Pulse  Slope = 5.821990E-3 +/- 5.657868E-4 Intercept = 1.100717E+1 +/- 1.372726E-3 Residue = 2.486163E-8
Heat Pulse  Slope = 1.016776E-2 +/- 3.925423E-3 Intercept = 1.098622E+1 +/- 2.959623E-2 Residue = 7.277350E-7
Post-Pulse  Slope = 6.908269E-3 +/- 5.567580E-3 Intercept = 1.102307E+1 +/- 6.984188E-2 Residue = 1.457638E-6
Sample Voltage = 1.520000E-1 Sample Voltage Uncertainty = 1.000000E-3
Sample Current = 1.998200E+0 Sample Current Uncertainty = 1.000000E-4
t(s)	T(K)	dT(K)
0.000000	11.004373	0.010000
0.111006	11.005889	0.010000
0.213012	11.009763	0.010000
0.316018	11.007238	0.010000
0.419024	11.010460	0.010000
0.521029	11.010469	0.010000
0.624035	11.012161	0.010000
0.726041	11.010659	0.010000
0.828047	11.011948	0.010000
0.931053	11.012194	0.010000
1.034059	11.011587	0.010000
1.136065	11.012502	0.010000
1.238070	11.013139	0.010000
1.340076	11.012431	0.010000
1.442082	11.015000	0.010000
1.544088	11.015320	0.010000
1.646094	11.015773	0.010000
1.748100	11.016143	0.010000
1.850106	11.017381	0.010000
1.952111	11.019064	0.010000
2.055118	11.020505	0.010000
2.157123	11.022630	0.010000
2.259129	11.023719	0.010000
2.362135	11.022386	0.010000
2.464141	11.023344	0.010000
2.566146	11.025914	0.010000
2.669152	11.024221	0.010000
2.771158	11.023332	0.010000
2.873164	11.025971	0.010000
2.975170	11.024796	0.010000
3.078176	11.023993	0.010000
3.180182	11.025042	0.010000
3.283187	11.025000	0.010000
3.386193	11.025670	0.010000
3.488199	11.027097	0.010000
3.590205	11.028443	0.010000
3.692211	11.027728	0.010000
3.795217	11.028833	0.010000
3.898223	11.026531	0.010000
4.001229	11.025328	0.010000
4.104235	11.028547	0.010000
4.206240	11.027863	0.010000
4.309246	11.029520	0.010000
4.412252	11.030690	0.010000
4.514258	11.029709	0.010000
4.616264	11.030803	0.010000
4.719270	11.035998	0.010000
4.821276	11.032854	0.010000
4.924282	11.034876	0.010000
5.027287	11.073952	0.010000
5.131293	11.053158	0.010000
5.233299	11.032639	0.010000
5.336305	11.034994	0.010000
5.439311	11.039157	0.010000
5.542317	11.041993	0.010000
5.644323	11.041258	0.010000
5.747329	11.043003	0.010000
5.850334	11.041646	0.010000
5.952340	11.040188	0.010000
6.054346	11.045759	0.010000
6.156352	11.044902	0.010000
6.259358	11.046690	0.010000
6.362364	11.046965	0.010000
6.464370	11.049581	0.010000
6.566375	11.050649	0.010000
6.669381	11.049681	0.010000
6.772387	11.052429	0.010000
6.875393	11.054421	0.010000
6.978399	11.052970	0.010000
7.081405	11.056006	0.010000
7.184411	11.078501	0.010000
7.286417	11.099812	0.010000
7.389422	11.060579	0.010000
7.491428	11.060904	0.010000
7.593434	11.061381	0.010000
7.696440	11.064389	0.010000
7.798446	11.060501	0.010000
7.900452	11.066370	0.010000
8.003458	11.065732	0.010000
8.106463	11.068298	0.010000
8.208469	11.067015	0.010000
8.311475	11.067199	0.010000
8.413481	11.069302	0.010000
8.515487	11.071744	0.010000
8.618493	11.071991	0.010000
8.721498	11.075275	0.010000
8.823504	11.073500	0.010000
8.925510	11.076475	0.010000
9.028516	11.079335	0.010000
9.130522	11.080642	0.010000
9.232528	11.076884	0.010000
9.335534	11.101873	0.010000
9.438540	11.127960	0.010000
9.541545	11.080685	0.010000
9.644551	11.082827	0.010000
9.747557	11.082435	0.010000
9.849563	11.088665	0.010000
9.952569	11.089302	0.010000
10.054575	11.086117	0.010000
10.156580	11.092469	0.010000
10.259587	11.090726	0.010000
10.362593	11.092066	0.010000
10.465599	11.093962	0.010000
10.568604	11.093893	0.010000
10.670610	11.093338	0.010000
10.772616	11.092120	0.010000
10.875622	11.093101	0.010000
10.978628	11.095940	0.010000
11.081634	11.095238	0.010000
11.184639	11.094174	0.010000
11.286645	11.099961	0.010000
11.389651	11.098265	0.010000
11.491657	11.120332	0.010000
11.593663	11.143133	0.010000
11.696669	11.101176	0.010000
11.798675	11.099402	0.010000
11.900681	11.102450	0.010000
12.002687	11.104361	0.010000
12.105692	11.101044	0.010000
12.207698	11.104612	0.010000
12.310704	11.102565	0.010000
12.412710	11.104630	0.010000
12.515716	11.104802	0.010000
12.618721	11.104800	0.010000
12.720727	11.105489	0.010000
12.822733	11.106131	0.010000
12.924739	11.107719	0.010000
13.027745	11.108252	0.010000
13.129751	11.107907	0.010000
13.231757	11.110087	0.010000
13.333763	11.109333	0.010000
13.435768	11.110613	0.010000
13.537774	11.111421	0.010000
13.640780	11.135718	0.010000
13.742786	11.155520	0.010000
13.844792	11.112878	0.010000
13.947798	11.114248	0.010000
14.050804	11.114398	0.010000
14.152809	11.115674	0.010000
14.254815	11.116086	0.010000
14.356821	11.117803	0.010000
14.459827	11.118179	0.010000
14.561833	11.117700	0.010000
14.663838	11.118200	0.010000
14.766844	11.118244	0.010000
14.868850	11.122151	0.010000
14.970856	11.121987	0.010000
15.073862	11.121725	0.010000
Sample : Ni
Pre-Pulse  Slope = 5.868302E-3 +/- 8.082915E-4 Intercept = 1.164284E+1 +/- 1.963388E-3 Residue = 5.079239E-8
Heat Pulse  Slope = 9.767904E-3 +/- 5.956041E-4 Intercept = 1.161855E+1 +/- 4.489231E-3 Residue = 1.672171E-8
Post-Pulse  Slope = 8.630807E-3 +/- 7.662321E-3 Intercept = 1.163568E+1 +/- 9.607079E-2 Residue = 2.762969E-6
Sample Voltage = 1.520000E-1 Sample Voltage Uncertainty = 1.000000E-3
Sample Current = 1.998020E+0 Sample Current Uncertainty = 1.000000E-4
t(s)	T(K)	dT(K)
0.000000	11.642963	0.010000
0.112006	11.643714	0.010000
0.215012	11.640964	0.010000
0.317018	11.642034	0.010000
0.419024	11.649000	0.010000
0.522029	11.646205	0.010000
0.624035	11.645408	0.010000
0.727041	11.644138	0.010000
0.830047	11.649385	0.010000
0.932053	11.648653	0.010000
1.035059	11.648931	0.010000
1.138065	11.650497	0.010000
1.240071	11.652055	0.010000
1.343077	11.654585	0.010000
1.445082	11.649188	0.010000
1.547088	11.653198	0.010000
1.650094	11.648954	0.010000
1.752100	11.654023	0.010000
1.854106	11.649732	0.010000
1.957112	11.654993	0.010000
2.059118	11.656851	0.010000
2.161123	11.652996	0.010000
2.263129	11.658599	0.010000
2.366135	11.654745	0.010000
2.468141	11.658146	0.010000
2.570147	11.657743	0.010000
2.672153	11.655345	0.010000
2.774158	11.658844	0.010000
2.876164	11.659886	0.010000
2.978170	11.664459	0.010000
3.080176	11.663361	0.010000
3.183182	11.664885	0.010000
3.286188	11.659936	0.010000
3.388194	11.661495	0.010000
3.491199	11.661936	0.010000
3.594205	11.664113	0.010000
3.696211	11.666183	0.010000
3.798217	11.667471	0.010000
3.900223	11.661043	0.010000
4.002229	11.668406	0.010000
4.104235	11.664869	0.010000
4.207241	11.668312	0.010000
4.310246	11.666452	0.010000
4.413252	11.667370	0.010000
4.516258	11.669843	0.010000
4.619264	11.670567	0.010000
4.722270	11.670526	0.010000
4.824275	11.672258	0.010000
4.926281	11.669452	0.010000
5.028287	11.671502	0.010000
5.132293	11.671021	0.010000
5.235299	11.669705	0.010000
5.337305	11.673803	0.010000
5.439311	11.673405	0.010000
5.541317	11.673002	0.010000
5.643322	11.674403	0.010000
5.745328	11.675454	0.010000
5.848334	11.675724	0.010000
5.951340	11.676933	0.010000
6.053346	11.676472	0.010000
6.156352	11.678318	0.010000
6.259358	11.678784	0.010000
6.361363	11.681639	0.010000
6.463369	11.682858	0.010000
6.565375	11.682230	0.010000
6.668381	11.683708	0.010000
6.771387	11.686082	0.010000
6.873393	11.685529	0.010000
6.975399	11.687535	0.010000
7.078404	11.688465	0.010000
7.181410	11.690069	0.010000
7.284416	11.689159	0.010000
7.386422	11.691114	0.010000
7.488428	11.690880	0.010000
7.591434	11.690964	0.010000
7.693440	11.693142	0.010000
7.795445	11.693577	0.010000
7.898452	11.697955	0.010000
8.000457	11.694591	0.010000
8.102463	11.695731	0.010000
8.205469	11.701123	0.010000
8.308475	11.700435	0.010000
8.410481	11.698496	0.010000
8.512486	11.702878	0.010000
8.615492	11.700662	0.010000
8.717498	11.704838	0.010000
8.820504	11.705031	0.010000
8.923510	11.706770	0.010000
9.025516	11.707899	0.010000
9.128522	11.709614	0.010000
9.231528	11.710207	0.010000
9.334534	11.711476	0.010000
9.436540	11.713125	0.010000
9.538545	11.713159	0.010000
9.640551	11.714260	0.010000
9.743557	11.713678	0.010000
9.845563	11.716119	0.010000
9.947569	11.715041	0.010000
10.050575	11.729675	0.010000
10.153581	11.716953	0.010000
10.256587	11.723926	0.010000
10.358592	11.784124	0.010000
10.460598	11.725375	0.010000
10.562604	11.848585	0.010000
10.664610	11.926420	0.010000
10.767616	11.792802	0.010000
10.870622	11.727807	0.010000
10.972627	11.726458	0.010000
11.075633	11.727139	0.010000
11.178639	11.729098	0.010000
11.280645	11.729960	0.010000
11.382651	11.728780	0.010000
11.485657	11.732889	0.010000
11.587663	11.730368	0.010000
11.689668	11.730575	0.010000
11.791674	11.744863	0.010000
11.894680	11.731720	0.010000
11.996686	11.732818	0.010000
12.098692	11.796660	0.010000
12.200697	11.737847	0.010000
12.302703	11.734477	0.010000
12.405709	11.739548	0.010000
12.508715	11.737254	0.010000
12.611721	11.740677	0.010000
12.713727	11.738686	0.010000
12.815733	11.801121	0.010000
12.917738	11.743081	0.010000
13.020744	11.740815	0.010000
13.122750	11.740142	0.010000
13.224756	11.743703	0.010000
13.327762	11.743471	0.010000
13.430768	11.746019	0.010000
13.532774	11.745247	0.010000
13.634779	11.744976	0.010000
13.737785	11.744099	0.010000
13.840791	11.745715	0.010000
13.942797	11.783941	0.010000
14.044803	11.745880	0.010000
14.147809	11.808786	0.010000
14.249815	11.748317	0.010000
14.351820	12.036594	0.010000
14.453826	12.040896	0.010000
14.555832	11.753463	0.010000
14.658838	11.811659	0.010000
14.760844	11.751427	0.010000
14.862850	11.750071	0.010000
14.964856	11.750716	0.010000
15.067862	11.753125	0.010000
Sample : Ni
Pre-Pulse  Slope = 5.161283E-3 +/- 4.048871E-4 Intercept = 1.252775E+1 +/- 9.831180E-4 Residue = 1.275669E-8
Heat Pulse  Slope = 3.456010E-2 +/- 5.292271E-3 Intercept = 1.236426E+1 +/- 3.982234E-2 Residue = 1.314422E-6
Post-Pulse  Slope = 5.830266E-3 +/- 7.173901E-4 Intercept = 1.265725E+1 +/- 8.985299E-3 Residue = 2.431244E-8
Sample Voltage = 3.800000E-1 Sample Voltage Uncertainty = 1.000000E-2
Sample Current = 5.020110E+0 Sample Current Uncertainty = 1.000000E-6
t(s)	T(K)	dT(K)
0.000000	12.526358	0.010000
0.111006	12.529076	0.010000
0.214013	12.528137	0.010000
0.317019	12.529663	0.010000
0.419024	12.530756	0.010000
0.522030	12.527000	0.010000
0.624036	12.529112	0.010000
0.727042	12.533067	0.010000
0.830048	12.531326	0.010000
0.932054	12.533020	0.010000
1.034060	12.533410	0.010000
1.136065	12.533548	0.010000
1.238071	12.534992	0.010000
1.341077	12.536487	0.010000
1.443083	12.535929	0.010000
1.545089	12.536903	0.010000
1.647094	12.536677	0.010000
1.749100	12.536323	0.010000
1.852106	12.538116	0.010000
1.954112	12.539083	0.010000
2.056118	12.539145	0.010000
2.158123	12.538216	0.010000
2.261129	12.539557	0.010000
2.363135	12.539940	0.010000
2.465141	12.537886	0.010000
2.567147	12.541923	0.010000
2.669153	12.541875	0.010000
2.772159	12.542134	0.010000
2.874165	12.542196	0.010000
2.977170	12.543617	0.010000
3.080176	12.543149	0.010000
3.183182	12.544173	0.010000
3.286188	12.543512	0.010000
3.388194	12.545594	0.010000
3.491200	12.543952	0.010000
3.594206	12.546620	0.010000
3.697212	12.548141	0.010000
3.800218	12.547265	0.010000
3.902224	12.547506	0.010000
4.004229	12.548334	0.010000
4.106235	12.547202	0.010000
4.208241	12.547916	0.010000
4.310246	12.548586	0.010000
4.412252	12.550229	0.010000
4.514258	12.549816	0.010000
4.616264	12.566962	0.010000
4.718270	12.573614	0.010000
4.820276	12.552925	0.010000
4.922282	12.552740	0.010000
5.024288	12.553331	0.010000
5.126293	12.555513	0.010000
5.229299	12.553477	0.010000
5.331305	12.552323	0.010000
5.433311	12.555953	0.010000
5.535317	12.555796	0.010000
5.637322	12.560485	0.010000
5.739328	12.562617	0.010000
5.841334	12.566403	0.010000
5.943340	12.570644	0.010000
6.045346	12.574381	0.010000
6.147352	12.576755	0.010000
6.249358	12.578303	0.010000
6.351364	12.579680	0.010000
6.453369	12.586494	0.010000
6.555375	12.586587	0.010000
6.658381	12.595100	0.010000
6.760387	12.618296	0.010000
6.862393	12.628463	0.010000
6.964398	12.603402	0.010000
7.066404	12.604926	0.010000
7.168410	12.611284	0.010000
7.270416	12.611975	0.010000
7.372422	12.612753	0.010000
7.475428	12.619080	0.010000
7.578434	12.621829	0.010000
7.680439	12.626946	0.010000
7.782445	12.628795	0.010000
7.884451	12.631683	0.010000
7.986457	12.636406	0.010000
8.088463	12.636763	0.010000
8.191469	12.640225	0.010000
8.294475	12.644802	0.010000
8.396481	12.648705	0.010000
8.498487	12.652850	0.010000
8.600492	12.657203	0.010000
8.702498	12.660099	0.010000
8.805504	12.663438	0.010000
8.908510	12.718948	0.010000
9.011516	12.702690	0.010000
9.113522	12.670401	0.010000
9.216527	12.680195	0.010000
9.319533	12.679306	0.010000
9.421539	12.682410	0.010000
9.523545	12.685236	0.010000
9.626551	12.687138	0.010000
9.729557	12.692022	0.010000
9.832562	12.693899	0.010000
9.935568	12.701407	0.010000
10.037574	12.706133	0.010000
10.140580	12.702416	0.010000
10.243586	12.712027	0.010000
10.345592	12.714869	0.010000
10.447598	12.713216	0.010000
10.550604	12.715333	0.010000
10.653609	12.718767	0.010000
10.755615	12.720947	0.010000
10.857621	12.718225	0.010000
10.959627	12.718726	0.010000
11.061633	12.722220	0.010000
11.163639	12.718485	0.010000
11.265645	12.722190	0.010000
11.367651	12.723516	0.010000
11.470656	12.725005	0.010000
11.572662	12.723739	0.010000
11.674668	12.728028	0.010000
11.777674	12.725632	0.010000
11.879680	12.726967	0.010000
11.981686	12.726584	0.010000
12.083691	12.727783	0.010000
12.186697	12.729457	0.010000
12.288703	12.729566	0.010000
12.391709	12.727411	0.010000
12.494715	12.728590	0.010000
12.597721	12.732949	0.010000
12.699727	12.730008	0.010000
12.801733	12.735036	0.010000
12.904738	12.733871	0.010000
13.007744	12.735673	0.010000
13.110750	12.733100	0.010000
13.213756	12.736003	0.010000
13.315762	12.734755	0.010000
13.418768	12.735266	0.010000
13.521774	12.734994	0.010000
13.624780	12.735877	0.010000
13.727786	12.736323	0.010000
13.830791	12.735546	0.010000
13.933797	12.738443	0.010000
14.035803	12.738696	0.010000
14.138809	12.738250	0.010000
14.240815	12.739576	0.010000
14.342821	12.741031	0.010000
14.444827	12.741404	0.010000
14.547832	12.740994	0.010000
14.650838	12.742403	0.010000
14.753844	12.742423	0.010000
14.856850	12.742276	0.010000
14.958856	12.743466	0.010000
15.060862	12.743529	0.010000
Sample : Ni
Pre-Pulse  Slope = -1.606768E-3 +/- 6.382109E-3 Intercept = 1.300385E+1 +/- 1.550755E-2 Residue = 3.169611E-6
Heat Pulse  Slope = 2.635254E-2 +/- 7.068239E-3 Intercept = 1.288884E+1 +/- 5.327820E-2 Residue = 2.358496E-6
Post-Pulse  Slope = 8.358007E-3 +/- 3.293052E-3 Intercept = 1.313160E+1 +/- 4.127893E-2 Residue = 5.085847E-7
Sample Voltage = 3.830000E-1 Sample Voltage Uncertainty = 1.000000E-3
Sample Current = 5.020180E+0 Sample Current Uncertainty = 1.000000E-6
t(s)	T(K)	dT(K)
0.000000	12.983385	0.010000
0.112007	12.986973	0.010000
0.215013	12.986287	0.010000
0.318018	12.987586	0.010000
0.420024	12.988502	0.010000
0.523030	12.987013	0.010000
0.626036	12.987017	0.010000
0.729042	13.036291	0.010000
0.831048	13.091906	0.010000
0.933053	12.989581	0.010000
1.035059	12.989833	0.010000
1.137065	12.991063	0.010000
1.239071	12.990688	0.010000
1.342077	12.992269	0.010000
1.444083	12.992559	0.010000
1.546089	12.993447	0.010000
1.648094	12.996179	0.010000
1.751101	12.993733	0.010000
1.854106	12.995119	0.010000
1.957112	12.996049	0.010000
2.059118	12.995839	0.010000
2.161124	12.996867	0.010000
2.263130	12.994672	0.010000
2.366136	12.996123	0.010000
2.468141	12.995878	0.010000
2.571147	12.998145	0.010000
2.674153	12.999927	0.010000
2.776159	12.998725	0.010000
2.879165	12.999172	0.010000
2.981171	13.000827	0.010000
3.083177	12.998139	0.010000
3.185182	13.000784	0.010000
3.287188	12.999394	0.010000
3.389194	13.002758	0.010000
3.492200	13.001391	0.010000
3.595206	13.000824	0.010000
3.697212	13.002923	0.010000
3.799217	13.004476	0.010000
3.901223	13.000534	0.010000
4.003229	13.002479	0.010000
4.106235	13.004104	0.010000
4.209241	13.003390	0.010000
4.312247	13.005512	0.010000
4.414253	13.006349	0.010000
4.516259	13.004834	0.010000
4.619264	13.005289	0.010000
4.721270	13.005483	0.010000
4.824276	13.007655	0.010000
4.927282	13.007404	0.010000
5.029288	13.006939	0.010000
5.132294	13.007948	0.010000
5.234300	13.018815	0.010000
5.337306	13.016210	0.010000
5.440311	13.061067	0.010000
5.542317	13.042915	0.010000
5.644323	13.022067	0.010000
5.746329	13.024792	0.010000
5.849335	13.025956	0.010000
5.952341	13.029707	0.010000
6.054347	13.030887	0.010000
6.156353	13.041071	0.010000
6.258358	13.094198	0.010000
6.360364	13.092472	0.010000
6.463370	13.055826	0.010000
6.565376	13.048776	0.010000
6.668382	13.052925	0.010000
6.771388	13.053481	0.010000
6.873394	13.055529	0.010000
6.975399	13.062816	0.010000
7.078405	13.107730	0.010000
7.180411	13.083897	0.010000
7.283417	13.070825	0.010000
7.386423	13.071514	0.010000
7.488429	13.075939	0.010000
7.591434	13.077884	0.010000
7.693440	13.084811	0.010000
7.795446	13.086857	0.010000
7.897452	13.100929	0.010000
8.000458	13.103863	0.010000
8.103464	13.130568	0.010000
8.206470	13.117026	0.010000
8.309475	13.102376	0.010000
8.412481	13.105445	0.010000
8.514487	13.110468	0.010000
8.617493	13.115158	0.010000
8.719499	13.119346	0.010000
8.822505	13.123048	0.010000
8.924510	13.123810	0.010000
9.026516	13.128310	0.010000
9.128522	13.128734	0.010000
9.230528	13.135452	0.010000
9.333534	13.136681	0.010000
9.435540	13.138994	0.010000
9.537546	13.144372	0.010000
9.639552	13.145026	0.010000
9.742558	13.156272	0.010000
9.844563	13.198970	0.010000
9.947569	13.200680	0.010000
10.050575	13.214179	0.010000
10.152581	13.221929	0.010000
10.254587	13.225158	0.010000
10.357593	13.229584	0.010000
10.459599	13.231051	0.010000
10.562604	13.232267	0.010000
10.664610	13.237717	0.010000
10.767616	13.199898	0.010000
10.869622	13.180342	0.010000
10.972628	13.216087	0.010000
11.074634	13.216819	0.010000
11.176640	13.215827	0.010000
11.279645	13.227442	0.010000
11.381651	13.228400	0.010000
11.484657	13.227464	0.010000
11.586663	13.234946	0.010000
11.688669	13.224203	0.010000
11.790675	13.237380	0.010000
11.892680	13.224135	0.010000
11.994686	13.240658	0.010000
12.096692	13.234002	0.010000
12.198698	13.240175	0.010000
12.300704	13.238162	0.010000
12.403709	13.237440	0.010000
12.506715	13.239622	0.010000
12.608721	13.240407	0.010000
12.710727	13.246988	0.010000
12.812733	13.210660	0.010000
12.914739	13.235382	0.010000
13.016745	13.240304	0.010000
13.118751	13.246585	0.010000
13.220757	13.245063	0.010000
13.323762	13.241849	0.010000
13.425768	13.248559	0.010000
13.527774	13.242454	0.010000
13.630780	13.247156	0.010000
13.732786	13.243551	0.010000
13.834791	13.249348	0.010000
13.936797	13.242593	0.010000
14.038803	13.242237	0.010000
14.141809	13.235670	0.010000
14.244815	13.243796	0.010000
14.347821	13.211621	0.010000
14.450827	13.200213	0.010000
14.553833	13.198644	0.010000
14.656838	13.197850	0.010000
14.759844	13.197677	0.010000
14.862850	13.200576	0.010000
14.965856	13.200882	0.010000
15.067862	13.201334	0.010000
Sample : Ni
Pre-Pulse  Slope = 6.019004E-3 +/- 4.616695E-4 Intercept = 1.355184E+1 +/- 1.121750E-3 Residue = 1.662684E-8
Heat Pulse  Slope = 3.024979E-2 +/- 6.942433E-4 Intercept = 1.341950E+1 +/- 5.230989E-3 Residue = 2.275024E-8
Post-Pulse  Slope = 6.081007E-3 +/- 9.319889E-4 Intercept = 1.367439E+1 +/- 1.168560E-2 Residue = 4.091496E-8
Sample Voltage = 3.830000E-1 Sample Voltage Uncertainty = 1.000000E-3
Sample Current = 5.020101E+0 Sample Current Uncertainty = 1.000000E-6
t(s)	T(K)	dT(K)
0.000000	13.553201	0.010000
0.112007	13.550228	0.010000
0.214012	13.551059	0.010000
0.317018	13.551795	0.010000
0.419024	13.552727	0.010000
0.521030	13.555820	0.010000
0.623036	13.555699	0.010000
0.726042	13.554622	0.010000
0.828047	13.555936	0.010000
0.931053	13.557358	0.010000
1.033059	13.561148	0.010000
1.135065	13.559562	0.010000
1.238071	13.559068	0.010000
1.340077	13.558738	0.010000
1.443083	13.557805	0.010000
1.545088	13.560902	0.010000
1.647094	13.563386	0.010000
1.749100	13.562602	0.010000
1.852106	13.562804	0.010000
1.955112	13.561817	0.010000
2.058118	13.563505	0.010000
2.161124	13.566190	0.010000
2.263130	13.564060	0.010000
2.366136	13.564613	0.010000
2.468141	13.567834	0.010000
2.571147	13.568769	0.010000
2.674153	13.568029	0.010000
2.776159	13.570297	0.010000
2.878165	13.568932	0.010000
2.981171	13.569929	0.010000
3.083177	13.572442	0.010000
3.185182	13.571883	0.010000
3.288188	13.570452	0.010000
3.391194	13.572710	0.010000
3.494200	13.573557	0.010000
3.596206	13.572757	0.010000
3.698212	13.575193	0.010000
3.800218	13.572848	0.010000
3.902223	13.573875	0.010000
4.005229	13.573810	0.010000
4.107235	13.574436	0.010000
4.209241	13.576163	0.010000
4.311247	13.575400	0.010000
4.414253	13.576162	0.010000
4.516258	13.577914	0.010000
4.618264	13.580238	0.010000
4.721270	13.576174	0.010000
4.823276	13.578564	0.010000
4.925282	13.580413	0.010000
5.027287	13.581235	0.010000
5.129293	13.582718	0.010000
5.231299	13.584221	0.010000
5.333305	13.582405	0.010000
5.435311	13.586061	0.010000
5.538317	13.588268	0.010000
5.641323	13.591475	0.010000
5.743329	13.592738	0.010000
5.846334	13.596464	0.010000
5.948340	13.598548	0.010000
6.051346	13.600127	0.010000
6.153352	13.604860	0.010000
6.255358	13.609691	0.010000
6.358364	13.610171	0.010000
6.460370	13.616612	0.010000
6.563375	13.618920	0.010000
6.665381	13.621377	0.010000
6.767387	13.623040	0.010000
6.869393	13.626730	0.010000
6.971399	13.629741	0.010000
7.074405	13.635072	0.010000
7.177411	13.636894	0.010000
7.280416	13.639467	0.010000
7.383422	13.643743	0.010000
7.486428	13.647450	0.010000
7.589434	13.650044	0.010000
7.691440	13.653453	0.010000
7.794446	13.654615	0.010000
7.896452	13.658676	0.010000
7.998457	13.665090	0.010000
8.100463	13.665050	0.010000
8.203469	13.667062	0.010000
8.306475	13.668402	0.010000
8.408481	13.670834	0.010000
8.511487	13.677510	0.010000
8.614493	13.677560	0.010000
8.716499	13.684871	0.010000
8.818504	13.684869	0.010000
8.920510	13.690413	0.010000
9.023516	13.692897	0.010000
9.126522	13.695116	0.010000
9.229528	13.697674	0.010000
9.332534	13.700867	0.010000
9.434540	13.703121	0.010000
9.537546	13.707727	0.010000
9.639552	13.708923	0.010000
9.741557	13.713227	0.010000
9.843563	13.717834	0.010000
9.946569	13.722016	0.010000
10.048575	13.724079	0.010000
10.151581	13.724734	0.010000
10.254587	13.731087	0.010000
10.357593	13.735236	0.010000
10.459599	13.733258	0.010000
10.562604	13.738558	0.010000
10.665610	13.737890	0.010000
10.767616	13.740196	0.010000
10.869622	13.738216	0.010000
10.972628	13.740490	0.010000
11.075634	13.741841	0.010000
11.178639	13.741950	0.010000
11.280645	13.744008	0.010000
11.382651	13.744170	0.010000
11.484657	13.741738	0.010000
11.587663	13.745149	0.010000
11.689669	13.746168	0.010000
11.791675	13.745800	0.010000
11.893681	13.746485	0.010000
11.995686	13.747805	0.010000
12.098692	13.747095	0.010000
12.201698	13.746254	0.010000
12.303704	13.750728	0.010000
12.406710	13.750903	0.010000
12.508716	13.754100	0.010000
12.610721	13.748437	0.010000
12.713727	13.752268	0.010000
12.815733	13.749937	0.010000
12.918739	13.755516	0.010000
13.020745	13.756949	0.010000
13.122751	13.750595	0.010000
13.225757	13.751587	0.010000
13.328763	13.756998	0.010000
13.430768	13.756765	0.010000
13.532774	13.758772	0.010000
13.635780	13.756098	0.010000
13.738786	13.758605	0.010000
13.841792	13.761387	0.010000
13.944798	13.755245	0.010000
14.046803	13.756360	0.010000
14.149809	13.762448	0.010000
14.251815	13.757863	0.010000
14.354821	13.759927	0.010000
14.457827	13.762796	0.010000
14.559833	13.761698	0.010000
14.661839	13.760863	0.010000
14.763844	13.762933	0.010000
14.866850	13.762330	0.010000
14.968856	13.764787	0.010000
15.070862	13.765848	0.010000
Sample : Ni
Pre-Pulse  Slope = 5.963451E-3 +/- 5.088787E-4 Intercept = 1.400510E+1 +/- 1.236851E-3 Residue = 2.020602E-8
Heat Pulse  Slope = 2.821313E-2 +/- 5.796913E-4 Intercept = 1.388726E+1 +/- 4.372183E-3 Residue = 1.582415E-8
Post-Pulse  Slope = 6.679157E-3 +/- 5.729231E-4 Intercept = 1.411299E+1 +/- 7.183031E-3 Residue = 1.540170E-8
Sample Voltage = 3.830000E-1 Sample Voltage Uncertainty = 1.000000E-3
Sample Current = 5.020110E+0 Sample Current Uncertainty = 1.000000E-6
t(s)	T(K)	dT(K)
0.000000	14.005114	0.010000
0.110006	14.006393	0.010000
0.213012	14.009354	0.010000
0.315018	14.007828	0.010000
0.418024	14.006653	0.010000
0.521030	14.007447	0.010000
0.624036	14.007960	0.010000
0.726041	14.010072	0.010000
0.828047	14.009463	0.010000
0.931053	14.010560	0.010000
1.033059	14.010876	0.010000
1.136065	14.010967	0.010000
1.239071	14.012846	0.010000
1.341077	14.012912	0.010000
1.443082	14.015051	0.010000
1.546088	14.016037	0.010000
1.649094	14.014409	0.010000
1.752100	14.013399	0.010000
1.854106	14.016033	0.010000
1.956112	14.017088	0.010000
2.058118	14.017965	0.010000
2.161124	14.020519	0.010000
2.264130	14.020887	0.010000
2.367136	14.018401	0.010000
2.469141	14.019747	0.010000
2.571147	14.020240	0.010000
2.674153	14.018830	0.010000
2.776159	14.022896	0.010000
2.879165	14.020986	0.010000
2.982171	14.021747	0.010000
3.085176	14.025746	0.010000
3.187182	14.024294	0.010000
3.289188	14.027964	0.010000
3.392194	14.026499	0.010000
3.494200	14.024409	0.010000
3.596206	14.023908	0.010000
3.698212	14.026161	0.010000
3.801218	14.025795	0.010000
3.904223	14.029946	0.010000
4.006229	14.030183	0.010000
4.108235	14.031913	0.010000
4.211241	14.030889	0.010000
4.314247	14.031028	0.010000
4.416253	14.030691	0.010000
4.518259	14.033151	0.010000
4.621264	14.031052	0.010000
4.723270	14.034071	0.010000
4.825276	14.036226	0.010000
4.927282	14.033273	0.010000
5.030288	14.035248	0.010000
5.132294	14.035475	0.010000
5.236300	14.038078	0.010000
5.339305	14.037588	0.010000
5.442311	14.041708	0.010000
5.545317	14.041972	0.010000
5.648323	14.048289	0.010000
5.751329	14.048803	0.010000
5.854335	14.053514	0.010000
5.956341	14.055711	0.010000
6.059347	14.057617	0.010000
6.162353	14.063271	0.010000
6.264358	14.064153	0.010000
6.367364	14.068233	0.010000
6.470370	14.070139	0.010000
6.572376	14.074116	0.010000
6.674382	14.075672	0.010000
6.776388	14.076310	0.010000
6.879394	14.080888	0.010000
6.981399	14.084386	0.010000
7.083405	14.087861	0.010000
7.185411	14.089206	0.010000
7.288417	14.093452	0.010000
7.390423	14.093985	0.010000
7.492428	14.098557	0.010000
7.595434	14.099968	0.010000
7.697440	14.102524	0.010000
7.799446	14.106391	0.010000
7.902452	14.108686	0.010000
8.005458	14.111612	0.010000
8.108464	14.118277	0.010000
8.210470	14.119431	0.010000
8.312475	14.120850	0.010000
8.415481	14.125539	0.010000
8.518487	14.129361	0.010000
8.620493	14.130836	0.010000
8.722499	14.133995	0.010000
8.825505	14.138281	0.010000
8.927511	14.138042	0.010000
9.030517	14.145509	0.010000
9.132522	14.146962	0.010000
9.234528	14.151212	0.010000
9.337534	14.153458	0.010000
9.440540	14.154562	0.010000
9.542546	14.157309	0.010000
9.644552	14.163383	0.010000
9.746558	14.165625	0.010000
9.848563	14.165555	0.010000
9.950569	14.169799	0.010000
10.053575	14.171929	0.010000
10.155581	14.178444	0.010000
10.258587	14.174382	0.010000
10.360592	14.180688	0.010000
10.462598	14.182224	0.010000
10.565604	14.181128	0.010000
10.667610	14.183549	0.010000
10.770616	14.183603	0.010000
10.873622	14.182503	0.010000
10.975628	14.185529	0.010000
11.077633	14.186378	0.010000
11.180639	14.187141	0.010000
11.282645	14.186206	0.010000
11.384651	14.190500	0.010000
11.486657	14.189574	0.010000
11.588663	14.190722	0.010000
11.690669	14.190300	0.010000
11.792675	14.192120	0.010000
11.894681	14.191444	0.010000
11.996686	14.194679	0.010000
12.098692	14.195237	0.010000
12.200698	14.194995	0.010000
12.302704	14.195009	0.010000
12.404709	14.193955	0.010000
12.506715	14.198837	0.010000
12.609721	14.196005	0.010000
12.712727	14.198402	0.010000
12.814733	14.197779	0.010000
12.916739	14.202237	0.010000
13.018744	14.200620	0.010000
13.120750	14.200761	0.010000
13.222756	14.201455	0.010000
13.325762	14.203403	0.010000
13.427768	14.200666	0.010000
13.530774	14.201585	0.010000
13.633780	14.203462	0.010000
13.736786	14.204628	0.010000
13.838791	14.204854	0.010000
13.941797	14.206501	0.010000
14.044803	14.206857	0.010000
14.146809	14.205824	0.010000
14.248815	14.207172	0.010000
14.350821	14.208996	0.010000
14.453827	14.210873	0.010000
14.555832	14.208968	0.010000
14.657838	14.208252	0.010000
14.760844	14.211187	0.010000
14.863850	14.209870	0.010000
14.965856	14.211836	0.010000
15.068862	14.212197	0.010000
Sample : Ni
Pre-Pulse  Slope = 6.075995E-3 +/- 3.288748E-3 Intercept = 1.463312E+1 +/- 7.993614E-3 Residue = 8.452429E-7
Heat Pulse  Slope = 2.959955E-2 +/- 6.398762E-3 Intercept = 1.450058E+1 +/- 4.823335E-2 Residue = 1.935145E-6
Post-Pulse  Slope = 5.520774E-3 +/- 4.388171E-4 Intercept = 1.474052E+1 +/- 5.503246E-3 Residue = 9.067815E-9
Sample Voltage = 3.830000E-1 Sample Voltage Uncertainty = 1.000000E-3
Sample Current = 5.020130E+0 Sample Current Uncertainty = 1.000000E-6
t(s)	T(K)	dT(K)
0.000000	14.633542	0.010000
0.111006	14.628902	0.010000
0.214012	14.658934	0.010000
0.316018	14.685728	0.010000
0.418024	14.635075	0.010000
0.520030	14.636775	0.010000
0.622036	14.635137	0.010000
0.725041	14.636323	0.010000
0.827047	14.636982	0.010000
0.929053	14.636750	0.010000
1.031059	14.637166	0.010000
1.134065	14.638151	0.010000
1.237071	14.637727	0.010000
1.339077	14.637107	0.010000
1.442082	14.641409	0.010000
1.545088	14.640853	0.010000
1.647094	14.641999	0.010000
1.750100	14.642294	0.010000
1.853106	14.643003	0.010000
1.956112	14.642503	0.010000
2.059118	14.643227	0.010000
2.162124	14.644186	0.010000
2.265130	14.644576	0.010000
2.368135	14.669174	0.010000
2.470141	14.695260	0.010000
2.572147	14.646716	0.010000
2.675153	14.645778	0.010000
2.778159	14.648169	0.010000
2.881165	14.647937	0.010000
2.983171	14.649730	0.010000
3.085176	14.650427	0.010000
3.187182	14.649650	0.010000
3.289188	14.649265	0.010000
3.392194	14.650573	0.010000
3.494200	14.651433	0.010000
3.596206	14.651299	0.010000
3.699212	14.654971	0.010000
3.801217	14.653266	0.010000
3.903223	14.653219	0.010000
4.005229	14.654255	0.010000
4.107235	14.656059	0.010000
4.210240	14.656526	0.010000
4.312246	14.656164	0.010000
4.414252	14.659932	0.010000
4.517258	14.681891	0.010000
4.620264	14.708450	0.010000
4.723270	14.657550	0.010000
4.825276	14.658577	0.010000
4.928282	14.661030	0.010000
5.030287	14.658785	0.010000
5.133294	14.660247	0.010000
5.235299	14.659408	0.010000
5.338305	14.663225	0.010000
5.440311	14.661557	0.010000
5.542317	14.666857	0.010000
5.644323	14.667656	0.010000
5.746328	14.669842	0.010000
5.848334	14.673764	0.010000
5.951340	14.676856	0.010000
6.053346	14.677969	0.010000
6.155352	14.680139	0.010000
6.257358	14.683793	0.010000
6.360363	14.686652	0.010000
6.463369	14.690586	0.010000
6.565375	14.691834	0.010000
6.667381	14.714088	0.010000
6.769387	14.749855	0.010000
6.872393	14.701227	0.010000
6.975399	14.701496	0.010000
7.077404	14.706023	0.010000
7.180410	14.708059	0.010000
7.283416	14.712048	0.010000
7.386422	14.715856	0.010000
7.489428	14.716122	0.010000
7.592434	14.721083	0.010000
7.695440	14.724229	0.010000
7.797446	14.726734	0.010000
7.900452	14.727998	0.010000
8.002458	14.729540	0.010000
8.104464	14.735503	0.010000
8.206469	14.735046	0.010000
8.309475	14.738707	0.010000
8.412481	14.743391	0.010000
8.514487	14.743453	0.010000
8.617493	14.747756	0.010000
8.720499	14.752034	0.010000
8.822505	14.773540	0.010000
8.924510	14.810528	0.010000
9.026516	14.758058	0.010000
9.128522	14.760851	0.010000
9.231528	14.766013	0.010000
9.334534	14.768137	0.010000
9.437540	14.768379	0.010000
9.539546	14.773916	0.010000
9.641551	14.775188	0.010000
9.744557	14.777800	0.010000
9.847563	14.781107	0.010000
9.950569	14.784204	0.010000
10.053575	14.787535	0.010000
10.155581	14.789738	0.010000
10.257586	14.791749	0.010000
10.360592	14.794587	0.010000
10.462598	14.794365	0.010000
10.565604	14.797893	0.010000
10.668610	14.797082	0.010000
10.771616	14.800451	0.010000
10.874622	14.801014	0.010000
10.976628	14.799519	0.010000
11.078633	14.801280	0.010000
11.181639	14.802574	0.010000
11.283645	14.802703	0.010000
11.385651	14.803605	0.010000
11.488657	14.803520	0.010000
11.590663	14.804279	0.010000
11.692668	14.803626	0.010000
11.794674	14.806050	0.010000
11.896680	14.806632	0.010000
11.998686	14.807642	0.010000
12.101692	14.808841	0.010000
12.203698	14.805871	0.010000
12.305704	14.810622	0.010000
12.407710	14.809819	0.010000
12.510715	14.808184	0.010000
12.613721	14.810129	0.010000
12.715727	14.811501	0.010000
12.817733	14.810340	0.010000
12.920739	14.810430	0.010000
13.023745	14.812213	0.010000
13.126750	14.814461	0.010000
13.229756	14.812592	0.010000
13.331762	14.814714	0.010000
13.433768	14.815496	0.010000
13.536774	14.815519	0.010000
13.638780	14.815815	0.010000
13.741786	14.815701	0.010000
13.843791	14.816258	0.010000
13.945797	14.817890	0.010000
14.047803	14.819069	0.010000
14.149809	14.820387	0.010000
14.251815	14.821139	0.010000
14.353821	14.821805	0.010000
14.456827	14.821250	0.010000
14.558833	14.820892	0.010000
14.661839	14.820169	0.010000
14.764844	14.823702	0.010000
14.867850	14.822041	0.010000
14.970856	14.822744	0.010000
15.073862	14.823707	0.010000
Sample : Ni
Pre-Pulse  Slope = 5.430058E-3 +/- 4.182232E-4 Intercept = 1.501755E+1 +/- 1.017095E-3 Residue = 1.363616E-8
Heat Pulse  Slope = 2.418129E-2 +/- 7.389601E-4 Intercept = 1.491264E+1 +/- 5.568696E-3 Residue = 2.565957E-8
Post-Pulse  Slope = 4.920213E-3 +/- 4.932786E-4 Intercept = 1.512038E+1 +/- 6.183205E-3 Residue = 1.146424E-8
Sample Voltage = 3.830000E-1 Sample Voltage Uncertainty = 1.000000E-3
Sample Current = 5.020210E+0 Sample Current Uncertainty = 1.000000E-6
t(s)	T(K)	dT(K)
0.000000	15.016652	0.010000
0.111006	15.017795	0.010000
0.213012	15.019868	0.010000
0.316018	15.020052	0.010000
0.419024	15.018635	0.010000
0.522030	15.018912	0.010000
0.625036	15.021571	0.010000
0.728042	15.021012	0.010000
0.831048	15.020936	0.010000
0.934053	15.023621	0.010000
1.037059	15.024056	0.010000
1.140065	15.023810	0.010000
1.242071	15.023992	0.010000
1.344077	15.025268	0.010000
1.447083	15.027215	0.010000
1.549088	15.023453	0.010000
1.651094	15.026671	0.010000
1.753100	15.027446	0.010000
1.855106	15.028173	0.010000
1.957112	15.031410	0.010000
2.059118	15.028190	0.010000
2.162124	15.027113	0.010000
2.264130	15.029935	0.010000
2.367136	15.028689	0.010000
2.470141	15.030505	0.010000
2.572147	15.033190	0.010000
2.675153	15.032739	0.010000
2.778159	15.031896	0.010000
2.881165	15.033507	0.010000
2.984171	15.034403	0.010000
3.086176	15.034425	0.010000
3.188182	15.035392	0.010000
3.290188	15.033914	0.010000
3.392194	15.037192	0.010000
3.495200	15.035467	0.010000
3.598206	15.037147	0.010000
3.701212	15.038322	0.010000
3.803217	15.036951	0.010000
3.905223	15.039041	0.010000
4.007229	15.039348	0.010000
4.110235	15.039788	0.010000
4.212241	15.041200	0.010000
4.315247	15.043632	0.010000
4.418253	15.043053	0.010000
4.520258	15.042611	0.010000
4.623264	15.043190	0.010000
4.726270	15.045791	0.010000
4.828276	15.044529	0.010000
4.930282	15.045409	0.010000
5.032288	15.045577	0.010000
5.133294	15.046365	0.010000
5.235300	15.045294	0.010000
5.337306	15.047569	0.010000
5.439311	15.045259	0.010000
5.541317	15.046602	0.010000
5.643323	15.047213	0.010000
5.745328	15.050216	0.010000
5.847334	15.056472	0.010000
5.949340	15.055005	0.010000
6.052346	15.058166	0.010000
6.155352	15.063755	0.010000
6.258358	15.066090	0.010000
6.361364	15.066165	0.010000
6.464370	15.069352	0.010000
6.567376	15.068378	0.010000
6.669382	15.075387	0.010000
6.772388	15.078622	0.010000
6.874393	15.076980	0.010000
6.976399	15.079812	0.010000
7.078405	15.081979	0.010000
7.180411	15.085493	0.010000
7.283417	15.087952	0.010000
7.385423	15.090943	0.010000
7.487428	15.092557	0.010000
7.589434	15.095862	0.010000
7.691440	15.099900	0.010000
7.794446	15.099295	0.010000
7.896452	15.107744	0.010000
7.998457	15.105747	0.010000
8.100463	15.110825	0.010000
8.202469	15.112077	0.010000
8.304475	15.114028	0.010000
8.407481	15.114240	0.010000
8.510487	15.117386	0.010000
8.612493	15.120114	0.010000
8.714499	15.122736	0.010000
8.816504	15.126897	0.010000
8.919510	15.128578	0.010000
9.021516	15.134573	0.010000
9.124522	15.132219	0.010000
9.227528	15.135309	0.010000
9.329534	15.138714	0.010000
9.431540	15.145926	0.010000
9.534545	15.143473	0.010000
9.636551	15.148051	0.010000
9.738557	15.150110	0.010000
9.840563	15.152771	0.010000
9.942569	15.155150	0.010000
10.044575	15.157337	0.010000
10.146580	15.161731	0.010000
10.249586	15.161211	0.010000
10.351592	15.164478	0.010000
10.454598	15.169900	0.010000
10.557604	15.170668	0.010000
10.660610	15.171663	0.010000
10.763616	15.172295	0.010000
10.866621	15.171085	0.010000
10.968627	15.172022	0.010000
11.071633	15.172920	0.010000
11.173639	15.173910	0.010000
11.275645	15.177373	0.010000
11.377651	15.176559	0.010000
11.480657	15.177213	0.010000
11.583663	15.176939	0.010000
11.686668	15.178869	0.010000
11.788674	15.178301	0.010000
11.890680	15.179754	0.010000
11.992686	15.179825	0.010000
12.095692	15.179301	0.010000
12.198698	15.183583	0.010000
12.301703	15.180985	0.010000
12.404709	15.180884	0.010000
12.506715	15.179464	0.010000
12.608721	15.181749	0.010000
12.710727	15.183135	0.010000
12.812733	15.183415	0.010000
12.914739	15.184527	0.010000
13.016745	15.184291	0.010000
13.119750	15.185828	0.010000
13.222756	15.185797	0.010000
13.324762	15.185581	0.010000
13.426768	15.186917	0.010000
13.529774	15.185786	0.010000
13.632780	15.187683	0.010000
13.734786	15.187024	0.010000
13.837791	15.187737	0.010000
13.939797	15.190011	0.010000
14.041803	15.189822	0.010000
14.143809	15.188663	0.010000
14.246815	15.190530	0.010000
14.349821	15.192755	0.010000
14.452826	15.191489	0.010000
14.554832	15.190484	0.010000
14.656838	15.190606	0.010000
14.758844	15.193501	0.010000
14.861850	15.191085	0.010000
14.964856	15.193345	0.010000
15.067862	15.193846	0.010000
Sample : Ni
Pre-Pulse  Slope = 5.095842E-3 +/- 3.387354E-4 Intercept = 1.541842E+1 +/- 8.413921E-4 Residue = 9.756257E-9
Heat Pulse  Slope = 2.401510E-2 +/- 5.351426E-4 Intercept = 1.531629E+1 +/- 4.030136E-3 Residue = 1.355224E-8
Post-Pulse  Slope = 5.666735E-3 +/- 6.288867E-4 Intercept = 1.550988E+1 +/- 7.878418E-3 Residue = 1.861841E-8
Sample Voltage = 3.830000E-1 Sample Voltage Uncertainty = 1.000000E-3
Sample Current = 5.022120E+0 Sample Current Uncertainty = 1.000000E-6
t(s)	T(K)	dT(K)
0.000000	15.418586	0.010000
0.111006	15.419796	0.010000
0.213012	15.420106	0.010000
0.316018	15.422345	0.010000
0.419024	15.421229	0.010000
0.521029	15.419732	0.010000
0.623035	15.421594	0.010000
0.725041	15.422842	0.010000
0.827047	15.422937	0.010000
0.930053	15.423657	0.010000
1.032059	15.423774	0.010000
1.134065	15.424696	0.010000
1.237071	15.424725	0.010000
1.339077	15.426008	0.010000
1.441082	15.425843	0.010000
1.543088	15.426208	0.010000
1.645094	15.428387	0.010000
1.747100	15.426199	0.010000
1.849105	15.427801	0.010000
1.951111	15.427582	0.010000
2.054117	15.429118	0.010000
2.157123	15.428469	0.010000
2.259129	15.430770	0.010000
2.361135	15.431146	0.010000
2.464141	15.428969	0.010000
2.567147	15.430734	0.010000
2.669152	15.434075	0.010000
2.772158	15.429912	0.010000
2.874164	15.433338	0.010000
2.975170	15.433090	0.010000
3.077176	15.434269	0.010000
3.179182	15.435570	0.010000
3.281188	15.434189	0.010000
3.383193	15.436958	0.010000
3.486199	15.435006	0.010000
3.588205	15.435940	0.010000
3.690211	15.436846	0.010000
3.792217	15.438119	0.010000
3.894223	15.439176	0.010000
3.997229	15.439978	0.010000
4.099234	15.438633	0.010000
4.201240	15.439830	0.010000
4.303246	15.440477	0.010000
4.405252	15.442422	0.010000
4.508258	15.442397	0.010000
4.611264	15.442274	0.010000
4.714270	15.443124	0.010000
4.816275	15.443096	0.010000
4.918281	15.443292	0.010000
5.020287	15.443137	0.010000
5.123293	15.442512	0.010000
5.225299	15.444617	0.010000
5.328305	15.445680	0.010000
5.430310	15.447815	0.010000
5.533316	15.449890	0.010000
5.636322	15.452932	0.010000
5.738328	15.454995	0.010000
5.840334	15.455821	0.010000
5.942340	15.459593	0.010000
6.044345	15.461469	0.010000
6.146351	15.464288	0.010000
6.248357	15.467569	0.010000
6.351363	15.470778	0.010000
6.454369	15.469429	0.010000
6.557375	15.472110	0.010000
6.660381	15.476384	0.010000
6.763387	15.479214	0.010000
6.866393	15.478674	0.010000
6.969398	15.483949	0.010000
7.072404	15.486732	0.010000
7.175410	15.490033	0.010000
7.278416	15.490602	0.010000
7.380422	15.493382	0.010000
7.482428	15.497311	0.010000
7.584434	15.496871	0.010000
7.686440	15.500236	0.010000
7.789445	15.503443	0.010000
7.891451	15.506554	0.010000
7.994457	15.507805	0.010000
8.097463	15.510302	0.010000
8.200469	15.512242	0.010000
8.303475	15.517786	0.010000
8.406481	15.519232	0.010000
8.508486	15.519990	0.010000
8.610492	15.521793	0.010000
8.713498	15.525125	0.010000
8.816504	15.529912	0.010000
8.918510	15.529813	0.010000
9.021516	15.532182	0.010000
9.123522	15.537241	0.010000
9.225527	15.537900	0.010000
9.328533	15.539429	0.010000
9.430539	15.544367	0.010000
9.532545	15.544131	0.010000
9.635551	15.549536	0.010000
9.738557	15.549120	0.010000
9.840563	15.558702	0.010000
9.942569	15.555530	0.010000
10.044574	15.558324	0.010000
10.146580	15.561026	0.010000
10.248586	15.564691	0.010000
10.350592	15.565183	0.010000
10.452598	15.569641	0.010000
10.554604	15.568035	0.010000
10.656610	15.568229	0.010000
10.758615	15.569698	0.010000
10.860621	15.569892	0.010000
10.962627	15.574043	0.010000
11.064633	15.573177	0.010000
11.166638	15.572497	0.010000
11.269644	15.572383	0.010000
11.372650	15.575491	0.010000
11.474656	15.575854	0.010000
11.576662	15.574409	0.010000
11.679668	15.577789	0.010000
11.782674	15.579091	0.010000
11.884680	15.575099	0.010000
11.986685	15.577303	0.010000
12.088691	15.577187	0.010000
12.190697	15.576183	0.010000
12.292703	15.580032	0.010000
12.394709	15.581243	0.010000
12.496715	15.580623	0.010000
12.599720	15.582926	0.010000
12.701726	15.580373	0.010000
12.803732	15.582085	0.010000
12.906738	15.582815	0.010000
13.009744	15.584359	0.010000
13.112750	15.585359	0.010000
13.215756	15.583184	0.010000
13.318762	15.586051	0.010000
13.420767	15.587846	0.010000
13.522773	15.587977	0.010000
13.624779	15.585685	0.010000
13.726785	15.587888	0.010000
13.829791	15.585955	0.010000
13.932797	15.589494	0.010000
14.034802	15.591439	0.010000
14.137808	15.587878	0.010000
14.239814	15.592246	0.010000
14.342820	15.588783	0.010000
14.444826	15.590766	0.010000
14.547832	15.593486	0.010000
14.649838	15.592912	0.010000
14.751843	15.590600	0.010000
14.854849	15.590204	0.010000
14.957855	15.597042	0.010000
15.060861	15.592651	0.010000
Sample : Ni
Pre-Pulse  Slope = 4.855026E-3 +/- 4.123336E-4 Intercept = 1.592653E+1 +/- 1.002214E-3 Residue = 1.328299E-8
Heat Pulse  Slope = 2.262937E-2 +/- 5.550036E-4 Intercept = 1.582798E+1 +/- 4.184552E-3 Residue = 1.451298E-8
Post-Pulse  Slope = 5.215606E-3 +/- 6.849328E-4 Intercept = 1.600898E+1 +/- 8.587280E-3 Residue = 2.213817E-8
Sample Voltage = 3.830000E-1 Sample Voltage Uncertainty = 1.000000E-3
Sample Current = 5.020120E+0 Sample Current Uncertainty = 1.000000E-5
t(s)	T(K)	dT(K)
0.000000	15.927114	0.010000
0.111006	15.926984	0.010000
0.214012	15.928010	0.010000
0.317018	15.926556	0.010000
0.419024	15.929444	0.010000
0.521030	15.928991	0.010000
0.623035	15.930185	0.010000
0.726041	15.930533	0.010000
0.828047	15.931127	0.010000
0.930053	15.931774	0.010000
1.032059	15.931308	0.010000
1.135065	15.932678	0.010000
1.237071	15.932772	0.010000
1.339077	15.932630	0.010000
1.442082	15.933539	0.010000
1.545088	15.934392	0.010000
1.648094	15.933228	0.010000
1.751100	15.932752	0.010000
1.854106	15.933362	0.010000
1.956112	15.936781	0.010000
2.058117	15.937759	0.010000
2.161124	15.936711	0.010000
2.263129	15.938446	0.010000
2.366135	15.937899	0.010000
2.469141	15.936772	0.010000
2.571147	15.937639	0.010000
2.673153	15.940668	0.010000
2.776159	15.942393	0.010000
2.879165	15.941702	0.010000
2.982171	15.941942	0.010000
3.084177	15.940525	0.010000
3.187182	15.940655	0.010000
3.289188	15.941902	0.010000
3.392194	15.941801	0.010000
3.495200	15.942125	0.010000
3.598206	15.943024	0.010000
3.700212	15.946407	0.010000
3.803217	15.945657	0.010000
3.905223	15.947044	0.010000
4.008229	15.947664	0.010000
4.111235	15.947044	0.010000
4.214241	15.947952	0.010000
4.317247	15.944813	0.010000
4.419253	15.949003	0.010000
4.521258	15.949204	0.010000
4.624264	15.945870	0.010000
4.726270	15.948146	0.010000
4.829276	15.950263	0.010000
4.931282	15.950508	0.010000
5.033288	15.952012	0.010000
5.134294	15.949497	0.010000
5.237299	15.950242	0.010000
5.340305	15.952140	0.010000
5.442311	15.953762	0.010000
5.544317	15.956444	0.010000
5.646323	15.958278	0.010000
5.749329	15.959294	0.010000
5.852334	15.962008	0.010000
5.955340	15.964830	0.010000
6.057346	15.964510	0.010000
6.159352	15.968287	0.010000
6.261358	15.970570	0.010000
6.364364	15.969768	0.010000
6.466370	15.973529	0.010000
6.568376	15.976595	0.010000
6.671381	15.980081	0.010000
6.774387	15.981597	0.010000
6.876393	15.984992	0.010000
6.978399	15.984630	0.010000
7.080405	15.987824	0.010000
7.182411	15.990520	0.010000
7.284417	15.993397	0.010000
7.387423	15.994333	0.010000
7.490428	15.997973	0.010000
7.593434	15.999128	0.010000
7.696440	16.001515	0.010000
7.798446	16.005673	0.010000
7.900452	16.007381	0.010000
8.003458	16.008485	0.010000
8.106463	16.013389	0.010000
8.208469	16.013083	0.010000
8.310475	16.018451	0.010000
8.412481	16.015632	0.010000
8.514487	16.021954	0.010000
8.617493	16.022102	0.010000
8.720499	16.023377	0.010000
8.822505	16.027312	0.010000
8.925510	16.031085	0.010000
9.028516	16.031831	0.010000
9.131522	16.035623	0.010000
9.234528	16.037663	0.010000
9.336534	16.039895	0.010000
9.438540	16.041301	0.010000
9.541546	16.044519	0.010000
9.644552	16.047893	0.010000
9.747558	16.047834	0.010000
9.849563	16.049805	0.010000
9.952569	16.051510	0.010000
10.054575	16.055086	0.010000
10.156581	16.056122	0.010000
10.258587	16.058900	0.010000
10.360592	16.062783	0.010000
10.462598	16.060846	0.010000
10.564604	16.064490	0.010000
10.666610	16.063064	0.010000
10.768616	16.064906	0.010000
10.870622	16.067291	0.010000
10.972628	16.065026	0.010000
11.074633	16.066920	0.010000
11.176639	16.069901	0.010000
11.278645	16.066842	0.010000
11.380651	16.068540	0.010000
11.482657	16.069875	0.010000
11.584662	16.069690	0.010000
11.686668	16.069095	0.010000
11.789674	16.070224	0.010000
11.892680	16.070925	0.010000
11.994686	16.069108	0.010000
12.096692	16.071619	0.010000
12.199697	16.074973	0.010000
12.302704	16.072734	0.010000
12.405710	16.073948	0.010000
12.507715	16.073314	0.010000
12.610721	16.071678	0.010000
12.712727	16.073709	0.010000
12.815733	16.077387	0.010000
12.917739	16.076682	0.010000
13.020745	16.076910	0.010000
13.122751	16.076373	0.010000
13.224756	16.078520	0.010000
13.327762	16.076583	0.010000
13.430768	16.078540	0.010000
13.533774	16.083375	0.010000
13.635780	16.082415	0.010000
13.738786	16.081194	0.010000
13.841792	16.080452	0.010000
13.944798	16.080630	0.010000
14.047803	16.082510	0.010000
14.150809	16.085225	0.010000
14.252815	16.080705	0.010000
14.355821	16.083943	0.010000
14.457827	16.083072	0.010000
14.559833	16.085066	0.010000
14.661839	16.084096	0.010000
14.764844	16.085698	0.010000
14.866850	16.085903	0.010000
14.968856	16.086804	0.010000
15.071862	16.086891	0.010000
Sample : Ni
Pre-Pulse  Slope = 4.982164E-3 +/- 3.903350E-4 Intercept = 1.633365E+1 +/- 9.489676E-4 Residue = 1.188564E-8
Heat Pulse  Slope = 2.137073E-2 +/- 4.742981E-4 Intercept = 1.624159E+1 +/- 3.576468E-3 Residue = 1.057820E-8
Post-Pulse  Slope = 5.376144E-3 +/- 5.470325E-4 Intercept = 1.641269E+1 +/- 6.856405E-3 Residue = 1.403355E-8
Sample Voltage = 3.830000E-1 Sample Voltage Uncertainty = 1.000000E-3
Sample Current = 5.020140E+0 Sample Current Uncertainty = 1.000000E-5
t(s)	T(K)	dT(K)
0.000000	16.334933	0.010000
0.111006	16.335434	0.010000
0.214012	16.334783	0.010000
0.317018	16.334601	0.010000
0.420024	16.337094	0.010000
0.522030	16.336846	0.010000
0.625036	16.338379	0.010000
0.727042	16.337480	0.010000
0.830048	16.337441	0.010000
0.932054	16.338928	0.010000
1.035059	16.337962	0.010000
1.138065	16.339871	0.010000
1.240071	16.338670	0.010000
1.342077	16.340048	0.010000
1.444083	16.340337	0.010000
1.547089	16.342635	0.010000
1.649095	16.340590	0.010000
1.751100	16.340777	0.010000
1.854106	16.342460	0.010000
1.956112	16.341498	0.010000
2.059118	16.343617	0.010000
2.161124	16.345723	0.010000
2.264130	16.344944	0.010000
2.367136	16.345148	0.010000
2.470141	16.347828	0.010000
2.572147	16.345695	0.010000
2.675153	16.347216	0.010000
2.777159	16.348938	0.010000
2.879165	16.347412	0.010000
2.982171	16.348403	0.010000
3.084177	16.347924	0.010000
3.187182	16.349933	0.010000
3.290188	16.350992	0.010000
3.392194	16.352742	0.010000
3.495200	16.351701	0.010000
3.598206	16.350569	0.010000
3.700212	16.352077	0.010000
3.802217	16.350044	0.010000
3.905223	16.354166	0.010000
4.008229	16.352276	0.010000
4.110235	16.351291	0.010000
4.212241	16.352850	0.010000
4.315247	16.353621	0.010000
4.418253	16.354921	0.010000
4.520258	16.355365	0.010000
4.623264	16.356515	0.010000
4.725270	16.355895	0.010000
4.828276	16.354967	0.010000
4.930282	16.356902	0.010000
5.032288	16.358831	0.010000
5.134294	16.356899	0.010000
5.237299	16.358699	0.010000
5.340305	16.359660	0.010000
5.442311	16.358523	0.010000
5.544317	16.360908	0.010000
5.647323	16.365038	0.010000
5.750329	16.365471	0.010000
5.853335	16.369695	0.010000
5.955341	16.370123	0.010000
6.057346	16.372037	0.010000
6.159352	16.374249	0.010000
6.261358	16.374425	0.010000
6.364364	16.377068	0.010000
6.467370	16.381168	0.010000
6.570376	16.380892	0.010000
6.673382	16.383201	0.010000
6.776388	16.387492	0.010000
6.878394	16.389141	0.010000
6.981400	16.390993	0.010000
7.084405	16.392334	0.010000
7.186411	16.395378	0.010000
7.288417	16.396088	0.010000
7.390423	16.400548	0.010000
7.492429	16.401068	0.010000
7.594434	16.405310	0.010000
7.697440	16.405048	0.010000
7.800446	16.407365	0.010000
7.902452	16.409780	0.010000
8.004458	16.412022	0.010000
8.106464	16.413723	0.010000
8.208469	16.416800	0.010000
8.310475	16.420383	0.010000
8.412481	16.422270	0.010000
8.514487	16.421199	0.010000
8.616493	16.427628	0.010000
8.718499	16.428387	0.010000
8.820505	16.430822	0.010000
8.922511	16.432358	0.010000
9.024516	16.433834	0.010000
9.126522	16.438265	0.010000
9.229528	16.441800	0.010000
9.332534	16.441989	0.010000
9.435540	16.444110	0.010000
9.537546	16.447368	0.010000
9.640552	16.447455	0.010000
9.742558	16.451754	0.010000
9.844563	16.452942	0.010000
9.946569	16.453849	0.010000
10.049575	16.460114	0.010000
10.151581	16.460417	0.010000
10.254587	16.462824	0.010000
10.356592	16.465472	0.010000
10.459599	16.464543	0.010000
10.562604	16.468235	0.010000
10.664610	16.470059	0.010000
10.766616	16.468332	0.010000
10.868622	16.471456	0.010000
10.971628	16.470878	0.010000
11.074634	16.469426	0.010000
11.176639	16.472980	0.010000
11.278645	16.473922	0.010000
11.380651	16.472020	0.010000
11.482657	16.473928	0.010000
11.584663	16.475699	0.010000
11.686668	16.477621	0.010000
11.789674	16.475085	0.010000
11.891680	16.477460	0.010000
11.993686	16.478352	0.010000
12.094692	16.478103	0.010000
12.196698	16.478987	0.010000
12.299704	16.478544	0.010000
12.402709	16.479226	0.010000
12.504715	16.479535	0.010000
12.606721	16.480257	0.010000
12.708727	16.480862	0.010000
12.810733	16.482276	0.010000
12.912739	16.482973	0.010000
13.014744	16.485259	0.010000
13.116750	16.482964	0.010000
13.219756	16.483086	0.010000
13.321762	16.486155	0.010000
13.424768	16.484113	0.010000
13.526774	16.483846	0.010000
13.628779	16.484924	0.010000
13.731785	16.485263	0.010000
13.834791	16.488070	0.010000
13.936797	16.486537	0.010000
14.039803	16.487696	0.010000
14.142809	16.486454	0.010000
14.245815	16.486616	0.010000
14.348821	16.491362	0.010000
14.450827	16.490590	0.010000
14.552833	16.490996	0.010000
14.654838	16.490548	0.010000
14.756844	16.490797	0.010000
14.859850	16.489604	0.010000
14.962856	16.491927	0.010000
15.064862	16.491045	0.010000
Sample : Ni
Pre-Pulse  Slope = 4.401443E-3 +/- 4.395674E-4 Intercept = 1.667914E+1 +/- 1.091671E-3 Residue = 1.644952E-8
Heat Pulse  Slope = 6.811289E-2 +/- 7.849159E-4 Intercept = 1.632566E+1 +/- 5.906003E-3 Residue = 2.892971E-8
Post-Pulse  Slope = 7.740016E-3 +/- 7.072388E-4 Intercept = 1.696419E+1 +/- 8.851595E-3 Residue = 2.350321E-8
Sample Voltage = 7.660000E-1 Sample Voltage Uncertainty = 1.000000E-3
Sample Current = 9.871100E+0 Sample Current Uncertainty = 1.000000E-4
t(s)	T(K)	dT(K)
0.000000	16.679868	0.010000
0.111006	16.678137	0.010000
0.214012	16.678348	0.010000
0.316018	16.679956	0.010000
0.418024	16.683008	0.010000
0.520030	16.683675	0.010000
0.622036	16.682146	0.010000
0.724041	16.680075	0.010000
0.826047	16.681828	0.010000
0.928053	16.683679	0.010000
1.031059	16.684039	0.010000
1.134065	16.685886	0.010000
1.236071	16.686498	0.010000
1.338077	16.685165	0.010000
1.440082	16.684136	0.010000
1.542088	16.683748	0.010000
1.644094	16.687316	0.010000
1.746100	16.685052	0.010000
1.848106	16.687453	0.010000
1.950111	16.686753	0.010000
2.052117	16.687928	0.010000
2.154123	16.687800	0.010000
2.257129	16.691824	0.010000
2.360135	16.688771	0.010000
2.463141	16.688280	0.010000
2.565147	16.690040	0.010000
2.668153	16.690024	0.010000
2.770158	16.690400	0.010000
2.872164	16.692479	0.010000
2.974170	16.693542	0.010000
3.076176	16.692039	0.010000
3.178182	16.693574	0.010000
3.280188	16.694608	0.010000
3.383193	16.696264	0.010000
3.486199	16.694261	0.010000
3.589205	16.696210	0.010000
3.692211	16.695890	0.010000
3.794217	16.695311	0.010000
3.896223	16.696063	0.010000
3.999228	16.694956	0.010000
4.102234	16.696976	0.010000
4.204240	16.697862	0.010000
4.306246	16.698159	0.010000
4.408252	16.698528	0.010000
4.511258	16.697778	0.010000
4.613264	16.698293	0.010000
4.716269	16.700277	0.010000
4.818275	16.699972	0.010000
4.921281	16.701272	0.010000
5.023287	16.700184	0.010000
5.125293	16.698564	0.010000
5.228299	16.703041	0.010000
5.330305	16.701296	0.010000
5.432311	16.702019	0.010000
5.534317	16.709325	0.010000
5.636322	16.712324	0.010000
5.738328	16.719203	0.010000
5.840334	16.724174	0.010000
5.942340	16.732319	0.010000
6.044346	16.737882	0.010000
6.146351	16.746094	0.010000
6.248357	16.751382	0.010000
6.350363	16.758549	0.010000
6.452369	16.765440	0.010000
6.554375	16.773205	0.010000
6.657381	16.779665	0.010000
6.760386	16.785090	0.010000
6.862392	16.791853	0.010000
6.964398	16.800726	0.010000
7.066404	16.807823	0.010000
7.168410	16.815355	0.010000
7.270416	16.815588	0.010000
7.372422	16.824007	0.010000
7.474428	16.835643	0.010000
7.577434	16.842125	0.010000
7.680439	16.845824	0.010000
7.782445	16.855045	0.010000
7.884451	16.862366	0.010000
7.987457	16.869756	0.010000
8.090463	16.877985	0.010000
8.192469	16.886736	0.010000
8.294475	16.890327	0.010000
8.396480	16.898552	0.010000
8.498486	16.906896	0.010000
8.600492	16.912050	0.010000
8.702497	16.918026	0.010000
8.804503	16.925531	0.010000
8.906509	16.930937	0.010000
9.008515	16.942747	0.010000
9.111521	16.947635	0.010000
9.214527	16.952223	0.010000
9.316533	16.961883	0.010000
9.418539	16.969600	0.010000
9.520545	16.974211	0.010000
9.622550	16.986034	0.010000
9.724556	16.988246	0.010000
9.826562	16.996560	0.010000
9.928568	17.005176	0.010000
10.031574	17.010682	0.010000
10.134580	17.018251	0.010000
10.236586	17.025228	0.010000
10.338591	17.031497	0.010000
10.440597	17.037266	0.010000
10.542603	17.040482	0.010000
10.645609	17.042249	0.010000
10.748615	17.043828	0.010000
10.850621	17.048406	0.010000
10.952626	17.048011	0.010000
11.054632	17.048188	0.010000
11.156638	17.049300	0.010000
11.258644	17.050462	0.010000
11.360650	17.049363	0.010000
11.462656	17.053526	0.010000
11.564662	17.053464	0.010000
11.666667	17.054838	0.010000
11.768673	17.056689	0.010000
11.871679	17.055308	0.010000
11.974685	17.058240	0.010000
12.077691	17.059271	0.010000
12.180696	17.058615	0.010000
12.282702	17.061343	0.010000
12.384708	17.059996	0.010000
12.487714	17.061442	0.010000
12.589720	17.060614	0.010000
12.691726	17.062720	0.010000
12.793732	17.063607	0.010000
12.896738	17.066424	0.010000
12.998744	17.064752	0.010000
13.100749	17.069588	0.010000
13.202755	17.067611	0.010000
13.304761	17.066024	0.010000
13.406767	17.069109	0.010000
13.508772	17.067903	0.010000
13.610778	17.067353	0.010000
13.713784	17.067376	0.010000
13.815790	17.069827	0.010000
13.917796	17.071327	0.010000
14.020802	17.069794	0.010000
14.122808	17.069369	0.010000
14.224813	17.074997	0.010000
14.326819	17.075283	0.010000
14.429825	17.075218	0.010000
14.531831	17.073001	0.010000
14.634837	17.072919	0.010000
14.736843	17.071927	0.010000
14.839849	17.075025	0.010000
14.941854	17.077699	0.010000
15.044860	17.075287	0.010000
Sample : Ni
Pre-Pulse  Slope = 3.884032E-3 +/- 3.639410E-4 Intercept = 1.721412E+1 +/- 8.844624E-4 Residue = 1.032650E-8
Heat Pulse  Slope = 6.433973E-2 +/- 5.375094E-4 Intercept = 1.688521E+1 +/- 4.050435E-3 Residue = 1.364746E-8
Post-Pulse  Slope = 7.026435E-3 +/- 6.633433E-4 Intercept = 1.748465E+1 +/- 8.317395E-3 Residue = 2.068400E-8
Sample Voltage = 7.570000E-1 Sample Voltage Uncertainty = 1.000000E-3
Sample Current = 9.878000E+0 Sample Current Uncertainty = 1.000000E-3
t(s)	T(K)	dT(K)
0.000000	17.213766	0.010000
0.110006	17.215589	0.010000
0.212012	17.212429	0.010000
0.314018	17.216635	0.010000
0.417024	17.217868	0.010000
0.520030	17.215846	0.010000
0.623035	17.216495	0.010000
0.726041	17.217638	0.010000
0.829047	17.217255	0.010000
0.932053	17.218206	0.010000
1.034059	17.217536	0.010000
1.136065	17.216716	0.010000
1.239071	17.217697	0.010000
1.341076	17.220242	0.010000
1.443082	17.219454	0.010000
1.546088	17.221781	0.010000
1.649094	17.221461	0.010000
1.751100	17.221438	0.010000
1.854106	17.222500	0.010000
1.957112	17.222063	0.010000
2.060118	17.222905	0.010000
2.162124	17.221328	0.010000
2.264129	17.224188	0.010000
2.366135	17.223228	0.010000
2.469141	17.223726	0.010000
2.572147	17.223663	0.010000
2.675153	17.224676	0.010000
2.777159	17.225676	0.010000
2.879165	17.222756	0.010000
2.982171	17.224732	0.010000
3.084176	17.224454	0.010000
3.186182	17.224563	0.010000
3.288188	17.226176	0.010000
3.391194	17.227798	0.010000
3.493200	17.228326	0.010000
3.595205	17.228492	0.010000
3.697211	17.228713	0.010000
3.799217	17.230386	0.010000
3.902223	17.230172	0.010000
4.004229	17.230287	0.010000
4.107235	17.231133	0.010000
4.209240	17.228369	0.010000
4.311246	17.231037	0.010000
4.414252	17.232316	0.010000
4.516258	17.231076	0.010000
4.618264	17.232492	0.010000
4.720270	17.230876	0.010000
4.822276	17.232580	0.010000
4.924282	17.233042	0.010000
5.026288	17.233728	0.010000
5.129293	17.234293	0.010000
5.232299	17.234800	0.010000
5.334305	17.235770	0.010000
5.436311	17.239722	0.010000
5.538317	17.246478	0.010000
5.640323	17.252212	0.010000
5.742328	17.257954	0.010000
5.845334	17.261582	0.010000
5.948340	17.270537	0.010000
6.050346	17.273961	0.010000
6.152352	17.281886	0.010000
6.255358	17.287666	0.010000
6.358364	17.294137	0.010000
6.460370	17.302429	0.010000
6.562375	17.307916	0.010000
6.665381	17.314675	0.010000
6.768387	17.319101	0.010000
6.871393	17.325809	0.010000
6.974399	17.331848	0.010000
7.077404	17.341401	0.010000
7.180410	17.349258	0.010000
7.282416	17.353517	0.010000
7.384422	17.358316	0.010000
7.486428	17.367986	0.010000
7.588434	17.374042	0.010000
7.691440	17.379253	0.010000
7.794446	17.385093	0.010000
7.896451	17.395140	0.010000
7.999457	17.400852	0.010000
8.101463	17.406759	0.010000
8.204469	17.412586	0.010000
8.307475	17.420971	0.010000
8.409481	17.424624	0.010000
8.511487	17.432326	0.010000
8.614492	17.440507	0.010000
8.717498	17.446812	0.010000
8.820504	17.451498	0.010000
8.922510	17.459548	0.010000
9.024516	17.466473	0.010000
9.127522	17.472179	0.010000
9.229528	17.480543	0.010000
9.331533	17.487345	0.010000
9.433539	17.493407	0.010000
9.536545	17.498780	0.010000
9.638551	17.506522	0.010000
9.741557	17.511798	0.010000
9.844563	17.517431	0.010000
9.946569	17.525618	0.010000
10.048574	17.530536	0.010000
10.151580	17.539943	0.010000
10.254586	17.544865	0.010000
10.357592	17.552316	0.010000
10.460598	17.553492	0.010000
10.562604	17.554872	0.010000
10.666610	17.557456	0.010000
10.769616	17.558600	0.010000
10.871622	17.561028	0.010000
10.974627	17.562890	0.010000
11.077633	17.561327	0.010000
11.179639	17.562657	0.010000
11.282645	17.563880	0.010000
11.384651	17.565106	0.010000
11.486657	17.564038	0.010000
11.588663	17.565408	0.010000
11.690669	17.567399	0.010000
11.792675	17.565909	0.010000
11.894680	17.566848	0.010000
11.996686	17.572104	0.010000
12.098692	17.570989	0.010000
12.201698	17.570481	0.010000
12.304704	17.573321	0.010000
12.406710	17.571542	0.010000
12.508715	17.571452	0.010000
12.610721	17.571912	0.010000
12.713727	17.576644	0.010000
12.815733	17.574416	0.010000
12.918739	17.576310	0.010000
13.020745	17.573687	0.010000
13.122750	17.578906	0.010000
13.225756	17.578922	0.010000
13.327762	17.578789	0.010000
13.430768	17.578997	0.010000
13.532774	17.580415	0.010000
13.634779	17.581203	0.010000
13.737786	17.581071	0.010000
13.840792	17.579892	0.010000
13.942797	17.580153	0.010000
14.044803	17.582988	0.010000
14.147809	17.583007	0.010000
14.249815	17.582222	0.010000
14.352821	17.582687	0.010000
14.455827	17.583293	0.010000
14.557833	17.583715	0.010000
14.660839	17.583739	0.010000
14.762844	17.584221	0.010000
14.865850	17.583791	0.010000
14.968856	17.584007	0.010000
15.070862	17.588292	0.010000
Sample : Ni
Pre-Pulse  Slope = 3.692026E-3 +/- 4.257175E-4 Intercept = 1.771872E+1 +/- 1.034650E-3 Residue = 1.412591E-8
Heat Pulse  Slope = 6.040322E-2 +/- 9.357852E-4 Intercept = 1.740700E+1 +/- 7.054250E-3 Residue = 4.129391E-8
Post-Pulse  Slope = 6.414390E-3 +/- 7.246488E-4 Intercept = 1.797997E+1 +/- 9.085569E-3 Residue = 2.472714E-8
Sample Voltage = 7.570000E-1 Sample Voltage Uncertainty = 1.000000E-3
Sample Current = 9.871850E+0 Sample Current Uncertainty = 1.000000E-5
t(s)	T(K)	dT(K)
0.000000	17.718132	0.010000
0.111006	17.720234	0.010000
0.214012	17.720457	0.010000
0.317018	17.720646	0.010000
0.419024	17.719371	0.010000
0.521030	17.720000	0.010000
0.623035	17.722807	0.010000
0.725041	17.722308	0.010000
0.828047	17.723360	0.010000
0.931053	17.718312	0.010000
1.034059	17.722150	0.010000
1.137065	17.722843	0.010000
1.240071	17.722033	0.010000
1.343077	17.725159	0.010000
1.446083	17.726094	0.010000
1.548089	17.724267	0.010000
1.651094	17.725263	0.010000
1.753100	17.725512	0.010000
1.855106	17.726177	0.010000
1.957112	17.725153	0.010000
2.060118	17.723940	0.010000
2.162124	17.725699	0.010000
2.264130	17.726928	0.010000
2.366135	17.727928	0.010000
2.468141	17.727400	0.010000
2.570147	17.728597	0.010000
2.673153	17.728723	0.010000
2.775159	17.728332	0.010000
2.878165	17.729266	0.010000
2.981171	17.729972	0.010000
3.083176	17.731566	0.010000
3.186182	17.730631	0.010000
3.288188	17.728953	0.010000
3.390194	17.730942	0.010000
3.493200	17.732479	0.010000
3.596206	17.733510	0.010000
3.699212	17.732482	0.010000
3.801218	17.732428	0.010000
3.903224	17.732865	0.010000
4.005229	17.734809	0.010000
4.108235	17.735386	0.010000
4.211241	17.737315	0.010000
4.314247	17.734827	0.010000
4.416253	17.732861	0.010000
4.519258	17.735684	0.010000
4.622264	17.735263	0.010000
4.724270	17.734195	0.010000
4.827276	17.736421	0.010000
4.929282	17.738254	0.010000
5.031288	17.740527	0.010000
5.134294	17.737131	0.010000
5.237299	17.738044	0.010000
5.339305	17.740006	0.010000
5.442311	17.742233	0.010000
5.545317	17.742742	0.010000
5.647323	17.752177	0.010000
5.749329	17.752427	0.010000
5.852335	17.764053	0.010000
5.955341	17.768986	0.010000
6.057346	17.773120	0.010000
6.159352	17.782614	0.010000
6.261358	17.787314	0.010000
6.363364	17.789334	0.010000
6.464370	17.798757	0.010000
6.567376	17.802677	0.010000
6.669382	17.808218	0.010000
6.771388	17.813125	0.010000
6.874393	17.822186	0.010000
6.976399	17.834061	0.010000
7.078405	17.831641	0.010000
7.180411	17.838930	0.010000
7.282416	17.845368	0.010000
7.385422	17.853899	0.010000
7.487428	17.859302	0.010000
7.590434	17.863008	0.010000
7.692440	17.873495	0.010000
7.795446	17.874901	0.010000
7.897452	17.884031	0.010000
8.000458	17.889299	0.010000
8.103464	17.895035	0.010000
8.206470	17.904087	0.010000
8.310475	17.910945	0.010000
8.412481	17.917542	0.010000
8.515487	17.921564	0.010000
8.618493	17.926636	0.010000
8.720499	17.934069	0.010000
8.823505	17.941741	0.010000
8.926511	17.945272	0.010000
9.028516	17.952751	0.010000
9.130522	17.958853	0.010000
9.233528	17.964680	0.010000
9.336534	17.971107	0.010000
9.439540	17.981840	0.010000
9.541546	17.987149	0.010000
9.643552	17.991556	0.010000
9.746558	17.995552	0.010000
9.848563	18.002107	0.010000
9.950569	18.012260	0.010000
10.052575	18.016623	0.010000
10.154581	18.021851	0.010000
10.256587	18.027568	0.010000
10.359592	18.036196	0.010000
10.461598	18.043560	0.010000
10.563604	18.041514	0.010000
10.665610	18.045471	0.010000
10.768616	18.048147	0.010000
10.870622	18.044413	0.010000
10.972628	18.048311	0.010000
11.074634	18.050132	0.010000
11.177639	18.048691	0.010000
11.279645	18.050051	0.010000
11.381651	18.052170	0.010000
11.483657	18.056221	0.010000
11.585663	18.055235	0.010000
11.687668	18.056275	0.010000
11.790674	18.053239	0.010000
11.893681	18.058919	0.010000
11.996686	18.055780	0.010000
12.099692	18.058421	0.010000
12.201698	18.059264	0.010000
12.304704	18.061767	0.010000
12.406710	18.060121	0.010000
12.509716	18.059394	0.010000
12.612721	18.063214	0.010000
12.714727	18.062602	0.010000
12.816733	18.060795	0.010000
12.918739	18.061681	0.010000
13.020745	18.062246	0.010000
13.122751	18.066145	0.010000
13.224756	18.064353	0.010000
13.327762	18.065398	0.010000
13.430768	18.065117	0.010000
13.532774	18.066156	0.010000
13.634780	18.068854	0.010000
13.736786	18.067962	0.010000
13.838791	18.067604	0.010000
13.941797	18.068139	0.010000
14.043803	18.068802	0.010000
14.145809	18.068800	0.010000
14.247815	18.068550	0.010000
14.350821	18.070885	0.010000
14.453827	18.072169	0.010000
14.556833	18.068629	0.010000
14.658838	18.073505	0.010000
14.760844	18.070836	0.010000
14.863850	18.070902	0.010000
14.965856	18.073668	0.010000
15.067862	18.071924	0.010000
Sample : Ni
Pre-Pulse  Slope = 3.112732E-3 +/- 6.629903E-4 Intercept = 1.821594E+1 +/- 1.611094E-3 Residue = 3.417558E-8
Heat Pulse  Slope = 5.692986E-2 +/- 9.052864E-4 Intercept = 1.792167E+1 +/- 6.823573E-3 Residue = 3.843640E-8
Post-Pulse  Slope = 6.418751E-3 +/- 9.537912E-4 Intercept = 1.845366E+1 +/- 1.195300E-2 Residue = 4.295637E-8
Sample Voltage = 7.570000E-1 Sample Voltage Uncertainty = 1.000000E-3
Sample Current = 9.879100E+0 Sample Current Uncertainty = 1.000000E-5
t(s)	T(K)	dT(K)
0.001000	18.214524	0.010000
0.112006	18.215277	0.010000
0.215012	18.220180	0.010000
0.317018	18.215973	0.010000
0.420024	18.215763	0.010000
0.522030	18.218755	0.010000
0.625036	18.219627	0.010000
0.728042	18.215212	0.010000
0.831048	18.217404	0.010000
0.934053	18.219061	0.010000
1.036059	18.216894	0.010000
1.139065	18.221740	0.010000
1.242071	18.220725	0.010000
1.344077	18.221407	0.010000
1.446083	18.222895	0.010000
1.548089	18.218918	0.010000
1.651094	18.222459	0.010000
1.753100	18.221911	0.010000
1.855106	18.221986	0.010000
1.957112	18.220774	0.010000
2.060118	18.221785	0.010000
2.162124	18.222155	0.010000
2.264130	18.220355	0.010000
2.366135	18.226702	0.010000
2.468141	18.221498	0.010000
2.571147	18.224003	0.010000
2.673153	18.224994	0.010000
2.775159	18.224061	0.010000
2.877164	18.221508	0.010000
2.980170	18.224488	0.010000
3.083176	18.227200	0.010000
3.186182	18.228923	0.010000
3.288188	18.222241	0.010000
3.390194	18.226577	0.010000
3.492199	18.225216	0.010000
3.594205	18.227491	0.010000
3.696211	18.228807	0.010000
3.798217	18.227642	0.010000
3.901223	18.230719	0.010000
4.004229	18.226882	0.010000
4.107235	18.231831	0.010000
4.210241	18.228592	0.010000
4.313247	18.230102	0.010000
4.415253	18.228880	0.010000
4.517258	18.231307	0.010000
4.619264	18.233246	0.010000
4.722270	18.232544	0.010000
4.824276	18.228733	0.010000
4.926281	18.232548	0.010000
5.028287	18.230919	0.010000
5.131293	18.230459	0.010000
5.234299	18.230563	0.010000
5.336305	18.234241	0.010000
5.439311	18.236417	0.010000
5.541317	18.243025	0.010000
5.644323	18.243829	0.010000
5.747329	18.248959	0.010000
5.849334	18.256205	0.010000
5.952340	18.263070	0.010000
6.055346	18.269971	0.010000
6.158352	18.273793	0.010000
6.261358	18.277912	0.010000
6.364364	18.283146	0.010000
6.467370	18.290591	0.010000
6.569376	18.296877	0.010000
6.671381	18.302590	0.010000
6.773387	18.304792	0.010000
6.876393	18.312938	0.010000
6.979399	18.316421	0.010000
7.081405	18.323294	0.010000
7.183411	18.327308	0.010000
7.285417	18.337909	0.010000
7.387423	18.339588	0.010000
7.489428	18.349672	0.010000
7.591434	18.355650	0.010000
7.693440	18.358864	0.010000
7.795446	18.362673	0.010000
7.897452	18.374074	0.010000
7.999457	18.379123	0.010000
8.101463	18.382128	0.010000
8.203469	18.388753	0.010000
8.305475	18.393215	0.010000
8.407481	18.397326	0.010000
8.510487	18.404640	0.010000
8.613492	18.411390	0.010000
8.715498	18.419205	0.010000
8.817504	18.425634	0.010000
8.919510	18.432762	0.010000
9.021516	18.437329	0.010000
9.123522	18.444025	0.010000
9.225528	18.451210	0.010000
9.327533	18.453798	0.010000
9.429539	18.459645	0.010000
9.532545	18.464197	0.010000
9.634551	18.472550	0.010000
9.736557	18.477205	0.010000
9.838562	18.485388	0.010000
9.940568	18.491673	0.010000
10.043574	18.494915	0.010000
10.145580	18.500212	0.010000
10.247586	18.506478	0.010000
10.349592	18.513153	0.010000
10.452598	18.515347	0.010000
10.555604	18.517743	0.010000
10.658609	18.519686	0.010000
10.760615	18.520761	0.010000
10.863621	18.521070	0.010000
10.965627	18.523445	0.010000
11.067633	18.522835	0.010000
11.169639	18.523968	0.010000
11.271645	18.526109	0.010000
11.374650	18.526917	0.010000
11.477656	18.529850	0.010000
11.579662	18.529420	0.010000
11.681668	18.530430	0.010000
11.784674	18.526613	0.010000
11.887680	18.530273	0.010000
11.989686	18.531005	0.010000
12.091691	18.530618	0.010000
12.194697	18.531339	0.010000
12.297703	18.531892	0.010000
12.400709	18.531537	0.010000
12.502715	18.530856	0.010000
12.604721	18.539597	0.010000
12.706727	18.533647	0.010000
12.809732	18.535094	0.010000
12.912738	18.536944	0.010000
13.015744	18.535352	0.010000
13.117750	18.542401	0.010000
13.220756	18.540997	0.010000
13.323762	18.542030	0.010000
13.426768	18.539982	0.010000
13.528774	18.540962	0.010000
13.630780	18.539528	0.010000
13.733786	18.540231	0.010000
13.835791	18.543419	0.010000
13.937797	18.539476	0.010000
14.039803	18.539247	0.010000
14.142809	18.546230	0.010000
14.244815	18.543595	0.010000
14.346820	18.544402	0.010000
14.448826	18.544459	0.010000
14.550832	18.545390	0.010000
14.653838	18.543555	0.010000
14.755844	18.544391	0.010000
14.857850	18.549220	0.010000
14.959856	18.545050	0.010000
15.061862	18.545117	0.010000
Sample : Ni
Pre-Pulse  Slope = 2.847655E-3 +/- 4.951572E-4 Intercept = 1.864805E+1 +/- 1.203813E-3 Residue = 1.911274E-8
Heat Pulse  Slope = 5.339166E-2 +/- 5.361890E-4 Intercept = 1.836054E+1 +/- 4.041148E-3 Residue = 1.353357E-8
Post-Pulse  Slope = 5.835022E-3 +/- 6.347736E-4 Intercept = 1.887481E+1 +/- 7.954645E-3 Residue = 1.891301E-8
Sample Voltage = 7.570000E-1 Sample Voltage Uncertainty = 1.000000E-3
Sample Current = 9.871910E+0 Sample Current Uncertainty = 1.000000E-5
t(s)	T(K)	dT(K)
0.000000	18.648271	0.010000
0.111007	18.650189	0.010000
0.214013	18.648779	0.010000
0.317019	18.647552	0.010000
0.420024	18.646331	0.010000
0.523030	18.650820	0.010000
0.626036	18.650396	0.010000
0.729042	18.647504	0.010000
0.831048	18.650583	0.010000
0.933053	18.652292	0.010000
1.036059	18.649286	0.010000
1.138065	18.653019	0.010000
1.240071	18.652210	0.010000
1.343077	18.650578	0.010000
1.445083	18.649739	0.010000
1.547089	18.653246	0.010000
1.649095	18.654865	0.010000
1.751101	18.653480	0.010000
1.853106	18.651451	0.010000
1.956112	18.652875	0.010000
2.059118	18.654237	0.010000
2.162124	18.655335	0.010000
2.264130	18.654218	0.010000
2.366136	18.654235	0.010000
2.469141	18.654342	0.010000
2.572147	18.656250	0.010000
2.674153	18.656962	0.010000
2.777159	18.658064	0.010000
2.879165	18.656630	0.010000
2.982171	18.656437	0.010000
3.084177	18.653712	0.010000
3.187182	18.656486	0.010000
3.290188	18.657715	0.010000
3.392194	18.656472	0.010000
3.495200	18.656152	0.010000
3.598206	18.660066	0.010000
3.700212	18.659351	0.010000
3.802217	18.660237	0.010000
3.905223	18.658683	0.010000
4.008229	18.660085	0.010000
4.110235	18.658511	0.010000
4.212241	18.659738	0.010000
4.314247	18.661906	0.010000
4.417253	18.661507	0.010000
4.520259	18.664066	0.010000
4.622264	18.661719	0.010000
4.724270	18.662353	0.010000
4.826276	18.661013	0.010000
4.928282	18.665722	0.010000
5.031288	18.662562	0.010000
5.134294	18.663294	0.010000
5.237300	18.660084	0.010000
5.339305	18.663427	0.010000
5.441311	18.662919	0.010000
5.543317	18.664806	0.010000
5.645323	18.663668	0.010000
5.747329	18.670154	0.010000
5.849335	18.677400	0.010000
5.951341	18.678152	0.010000
6.054347	18.683657	0.010000
6.157352	18.688220	0.010000
6.259358	18.696425	0.010000
6.362364	18.701768	0.010000
6.464370	18.706894	0.010000
6.566376	18.710642	0.010000
6.668382	18.716885	0.010000
6.770388	18.719890	0.010000
6.873393	18.727416	0.010000
6.976399	18.733793	0.010000
7.078405	18.738662	0.010000
7.180411	18.743479	0.010000
7.282417	18.748778	0.010000
7.384423	18.753660	0.010000
7.486428	18.758455	0.010000
7.589434	18.767482	0.010000
7.692440	18.772036	0.010000
7.795446	18.776817	0.010000
7.898452	18.782319	0.010000
8.000458	18.786853	0.010000
8.102464	18.791373	0.010000
8.205470	18.797878	0.010000
8.308475	18.805064	0.010000
8.410481	18.810212	0.010000
8.512487	18.814946	0.010000
8.614493	18.818479	0.010000
8.716499	18.827487	0.010000
8.818505	18.833608	0.010000
8.920510	18.836504	0.010000
9.023516	18.841891	0.010000
9.125522	18.848063	0.010000
9.227528	18.856021	0.010000
9.330534	18.861938	0.010000
9.432539	18.867772	0.010000
9.534545	18.872193	0.010000
9.636551	18.874857	0.010000
9.738557	18.882781	0.010000
9.840563	18.886996	0.010000
9.943569	18.891813	0.010000
10.046575	18.904841	0.010000
10.149580	18.905310	0.010000
10.252586	18.910034	0.010000
10.355593	18.915462	0.010000
10.458599	18.921309	0.010000
10.560604	18.928683	0.010000
10.662610	18.932964	0.010000
10.764616	18.933499	0.010000
10.866621	18.937009	0.010000
10.969627	18.935069	0.010000
11.071633	18.940888	0.010000
11.174639	18.938684	0.010000
11.276645	18.940665	0.010000
11.378651	18.942119	0.010000
11.480657	18.941587	0.010000
11.582663	18.942778	0.010000
11.684669	18.940073	0.010000
11.786674	18.942724	0.010000
11.888680	18.943413	0.010000
11.990686	18.945024	0.010000
12.092692	18.945058	0.010000
12.194698	18.946835	0.010000
12.296703	18.948124	0.010000
12.398709	18.948082	0.010000
12.500715	18.949234	0.010000
12.602721	18.946744	0.010000
12.704727	18.946804	0.010000
12.806733	18.948801	0.010000
12.909739	18.951645	0.010000
13.011744	18.953823	0.010000
13.114750	18.953021	0.010000
13.216756	18.951727	0.010000
13.319762	18.951351	0.010000
13.422768	18.953679	0.010000
13.525774	18.955095	0.010000
13.628780	18.951680	0.010000
13.731786	18.954572	0.010000
13.833791	18.954815	0.010000
13.935797	18.956117	0.010000
14.037803	18.955002	0.010000
14.140809	18.958580	0.010000
14.242815	18.955347	0.010000
14.345821	18.958292	0.010000
14.448827	18.958262	0.010000
14.550832	18.956739	0.010000
14.652838	18.957779	0.010000
14.755844	18.960659	0.010000
14.857850	18.960883	0.010000
14.960856	18.960727	0.010000
15.063862	18.960688	0.010000
Sample : Ni
Pre-Pulse  Slope = 3.255244E-3 +/- 5.267045E-4 Intercept = 1.939355E+1 +/- 1.278474E-3 Residue = 2.158300E-8
Heat Pulse  Slope = 4.796656E-2 +/- 7.136082E-4 Intercept = 1.914189E+1 +/- 5.378042E-3 Residue = 2.404889E-8
Post-Pulse  Slope = 5.518936E-3 +/- 1.050132E-3 Intercept = 1.959380E+1 +/- 1.316263E-2 Residue = 5.190407E-8
Sample Voltage = 7.570000E-1 Sample Voltage Uncertainty = 1.000000E-3
Sample Current = 9.871890E+0 Sample Current Uncertainty = 1.000000E-5
t(s)	T(K)	dT(K)
0.000000	19.394962	0.010000
0.110006	19.396872	0.010000
0.213012	19.397787	0.010000
0.316018	19.395761	0.010000
0.419024	19.393321	0.010000
0.522030	19.395342	0.010000
0.624036	19.396335	0.010000
0.726041	19.395615	0.010000
0.828047	19.396254	0.010000
0.930053	19.395890	0.010000
1.033059	19.396642	0.010000
1.135065	19.396661	0.010000
1.237071	19.397046	0.010000
1.339077	19.399779	0.010000
1.441082	19.399103	0.010000
1.544088	19.398080	0.010000
1.646094	19.399635	0.010000
1.748100	19.400549	0.010000
1.850106	19.399969	0.010000
1.953112	19.397438	0.010000
2.055118	19.400367	0.010000
2.158123	19.398682	0.010000
2.261129	19.404706	0.010000
2.363135	19.398944	0.010000
2.466141	19.401571	0.010000
2.568147	19.403412	0.010000
2.670153	19.402949	0.010000
2.773159	19.403407	0.010000
2.875165	19.401566	0.010000
2.978170	19.401479	0.010000
3.080176	19.404271	0.010000
3.182182	19.401560	0.010000
3.285188	19.401005	0.010000
3.387194	19.404595	0.010000
3.489200	19.405001	0.010000
3.592206	19.405546	0.010000
3.694211	19.405740	0.010000
3.797217	19.406629	0.010000
3.899223	19.409370	0.010000
4.002229	19.406859	0.010000
4.105235	19.403768	0.010000
4.207241	19.406954	0.010000
4.310246	19.406204	0.010000
4.412252	19.406477	0.010000
4.514258	19.407031	0.010000
4.616264	19.406678	0.010000
4.719270	19.409461	0.010000
4.822276	19.406208	0.010000
4.925282	19.407133	0.010000
5.027287	19.405274	0.010000
5.129293	19.407534	0.010000
5.231299	19.406355	0.010000
5.333305	19.412020	0.010000
5.436311	19.407597	0.010000
5.539317	19.412432	0.010000
5.641323	19.416103	0.010000
5.744328	19.418774	0.010000
5.847334	19.426922	0.010000
5.949340	19.426290	0.010000
6.051346	19.434436	0.010000
6.154352	19.437602	0.010000
6.257358	19.440914	0.010000
6.359364	19.446259	0.010000
6.462369	19.449885	0.010000
6.565375	19.455035	0.010000
6.667381	19.461158	0.010000
6.769387	19.469792	0.010000
6.871393	19.473223	0.010000
6.973399	19.475761	0.010000
7.077405	19.480541	0.010000
7.180411	19.485890	0.010000
7.282416	19.492905	0.010000
7.384422	19.494676	0.010000
7.486428	19.498859	0.010000
7.588434	19.505806	0.010000
7.691440	19.510810	0.010000
7.795446	19.517602	0.010000
7.897452	19.523478	0.010000
7.999457	19.524898	0.010000
8.102463	19.530774	0.010000
8.204469	19.535831	0.010000
8.307475	19.540595	0.010000
8.410481	19.543776	0.010000
8.513487	19.548343	0.010000
8.616493	19.553197	0.010000
8.719499	19.560970	0.010000
8.821505	19.564282	0.010000
8.923511	19.572810	0.010000
9.026516	19.577375	0.010000
9.129522	19.580135	0.010000
9.231528	19.589031	0.010000
9.333534	19.593128	0.010000
9.436540	19.599196	0.010000
9.539546	19.603050	0.010000
9.641551	19.607814	0.010000
9.743557	19.609339	0.010000
9.845563	19.614639	0.010000
9.947569	19.622991	0.010000
10.049575	19.630186	0.010000
10.151581	19.636209	0.010000
10.253586	19.638026	0.010000
10.355592	19.642251	0.010000
10.457598	19.644435	0.010000
10.560604	19.647241	0.010000
10.663610	19.653893	0.010000
10.765616	19.653378	0.010000
10.867621	19.652548	0.010000
10.969627	19.655271	0.010000
11.071633	19.652857	0.010000
11.173639	19.651409	0.010000
11.275645	19.657036	0.010000
11.377651	19.658839	0.010000
11.480657	19.654793	0.010000
11.583663	19.655836	0.010000
11.685668	19.660392	0.010000
11.787674	19.659652	0.010000
11.890680	19.659511	0.010000
11.993686	19.661037	0.010000
12.095692	19.659289	0.010000
12.198698	19.664990	0.010000
12.301703	19.666434	0.010000
12.403709	19.660794	0.010000
12.505715	19.661257	0.010000
12.607721	19.663751	0.010000
12.709727	19.663353	0.010000
12.811733	19.665611	0.010000
12.914739	19.668055	0.010000
13.016745	19.667259	0.010000
13.118751	19.666391	0.010000
13.220756	19.667032	0.010000
13.322762	19.667766	0.010000
13.425768	19.663197	0.010000
13.527774	19.668848	0.010000
13.630780	19.665453	0.010000
13.733786	19.667473	0.010000
13.836792	19.673497	0.010000
13.939797	19.669880	0.010000
14.042803	19.671718	0.010000
14.144809	19.671448	0.010000
14.246815	19.669490	0.010000
14.349821	19.668939	0.010000
14.451827	19.672332	0.010000
14.553833	19.668957	0.010000
14.655838	19.672608	0.010000
14.757844	19.674119	0.010000
14.860850	19.673040	0.010000
14.963856	19.674916	0.010000
15.065862	19.673127	0.010000
Sample : Ni
Pre-Pulse  Slope = 2.334363E-3 +/- 5.642086E-4 Intercept = 1.972542E+1 +/- 1.369180E-3 Residue = 2.477332E-8
Heat Pulse  Slope = 4.578980E-2 +/- 8.357050E-4 Intercept = 1.948505E+1 +/- 6.296691E-3 Residue = 3.286300E-8
Post-Pulse  Slope = 4.254502E-3 +/- 7.360467E-4 Intercept = 1.992851E+1 +/- 9.226226E-3 Residue = 2.551774E-8
Sample Voltage = 7.580000E-1 Sample Voltage Uncertainty = 1.000000E-3
Sample Current = 9.871930E+0 Sample Current Uncertainty = 1.000000E-5
t(s)	T(K)	dT(K)
0.000000	19.724142	0.010000
0.111006	19.724235	0.010000
0.213012	19.726316	0.010000
0.315018	19.725140	0.010000
0.418024	19.727030	0.010000
0.521030	19.725634	0.010000
0.623036	19.728812	0.010000
0.725041	19.726550	0.010000
0.827047	19.725090	0.010000
0.929053	19.730108	0.010000
1.031059	19.726187	0.010000
1.133065	19.726197	0.010000
1.235071	19.727764	0.010000
1.337077	19.727772	0.010000
1.440083	19.730283	0.010000
1.543088	19.729511	0.010000
1.645094	19.729979	0.010000
1.748100	19.732111	0.010000
1.851106	19.732533	0.010000
1.954112	19.728557	0.010000
2.057118	19.729640	0.010000
2.159123	19.732361	0.010000
2.261129	19.731488	0.010000
2.363135	19.730263	0.010000
2.465141	19.728471	0.010000
2.567147	19.732282	0.010000
2.669153	19.728380	0.010000
2.772159	19.731210	0.010000
2.874165	19.733475	0.010000
2.976171	19.732129	0.010000
3.079176	19.732543	0.010000
3.182182	19.731586	0.010000
3.284188	19.733810	0.010000
3.386194	19.733313	0.010000
3.489200	19.734088	0.010000
3.591206	19.733878	0.010000
3.694211	19.737084	0.010000
3.796217	19.732680	0.010000
3.898223	19.733712	0.010000
4.001229	19.737464	0.010000
4.103235	19.733558	0.010000
4.205241	19.738826	0.010000
4.307246	19.734454	0.010000
4.409252	19.737850	0.010000
4.512258	19.736024	0.010000
4.615264	19.731809	0.010000
4.717270	19.735237	0.010000
4.819276	19.736505	0.010000
4.922282	19.736795	0.010000
5.024287	19.733604	0.010000
5.126293	19.738327	0.010000
5.229299	19.736328	0.010000
5.332305	19.738016	0.010000
5.435311	19.740038	0.010000
5.537317	19.745786	0.010000
5.640323	19.748235	0.010000
5.742329	19.751602	0.010000
5.845335	19.753555	0.010000
5.948340	19.758667	0.010000
6.051346	19.760433	0.010000
6.154352	19.767559	0.010000
6.257358	19.771117	0.010000
6.359364	19.774962	0.010000
6.461370	19.783841	0.010000
6.563375	19.786035	0.010000
6.666381	19.792120	0.010000
6.768387	19.795645	0.010000
6.871393	19.802061	0.010000
6.973399	19.801017	0.010000
7.076405	19.808618	0.010000
7.179411	19.813715	0.010000
7.282417	19.816669	0.010000
7.384422	19.825817	0.010000
7.487428	19.827558	0.010000
7.589434	19.830412	0.010000
7.691440	19.839419	0.010000
7.793446	19.839247	0.010000
7.895452	19.846638	0.010000
7.998457	19.853379	0.010000
8.100463	19.851842	0.010000
8.202469	19.858398	0.010000
8.304475	19.866368	0.010000
8.406481	19.869700	0.010000
8.508487	19.876427	0.010000
8.610493	19.880803	0.010000
8.713499	19.884756	0.010000
8.816504	19.888982	0.010000
8.918510	19.893198	0.010000
9.020516	19.898232	0.010000
9.123522	19.903022	0.010000
9.226528	19.908887	0.010000
9.329534	19.912988	0.010000
9.431540	19.919784	0.010000
9.534545	19.921030	0.010000
9.636551	19.925133	0.010000
9.738557	19.934011	0.010000
9.841563	19.938565	0.010000
9.944569	19.941698	0.010000
10.047575	19.950116	0.010000
10.150580	19.955927	0.010000
10.253586	19.954942	0.010000
10.355592	19.962196	0.010000
10.458598	19.968028	0.010000
10.561604	19.968782	0.010000
10.663610	19.967634	0.010000
10.766616	19.967521	0.010000
10.868622	19.973281	0.010000
10.970628	19.970248	0.010000
11.072633	19.973565	0.010000
11.174639	19.975766	0.010000
11.276645	19.976638	0.010000
11.378651	19.974556	0.010000
11.480657	19.976290	0.010000
11.582663	19.979150	0.010000
11.684669	19.977405	0.010000
11.787674	19.979248	0.010000
11.890680	19.977720	0.010000
11.993686	19.982281	0.010000
12.095692	19.981765	0.010000
12.198698	19.983415	0.010000
12.300704	19.981694	0.010000
12.402709	19.979055	0.010000
12.504715	19.983006	0.010000
12.607721	19.983172	0.010000
12.710727	19.984703	0.010000
12.813733	19.980488	0.010000
12.916739	19.982354	0.010000
13.018745	19.986239	0.010000
13.120750	19.986491	0.010000
13.222756	19.984684	0.010000
13.324762	19.983927	0.010000
13.426768	19.984680	0.010000
13.529774	19.984849	0.010000
13.631780	19.984910	0.010000
13.734786	19.987625	0.010000
13.836792	19.986573	0.010000
13.938797	19.987613	0.010000
14.040803	19.988499	0.010000
14.142809	19.989381	0.010000
14.244815	19.990733	0.010000
14.346821	19.988567	0.010000
14.448826	19.986589	0.010000
14.550832	19.990064	0.010000
14.653838	19.989331	0.010000
14.755844	19.991555	0.010000
14.857850	19.988963	0.010000
14.959856	19.992807	0.010000
15.062861	19.989623	0.010000
Sample : Ni
Pre-Pulse  Slope = 2.638589E-3 +/- 5.588784E-4 Intercept = 2.004354E+1 +/- 1.387051E-3 Residue = 2.654586E-8
Heat Pulse  Slope = 4.427199E-2 +/- 8.017249E-4 Intercept = 1.981236E+1 +/- 6.037956E-3 Residue = 3.031685E-8
Post-Pulse  Slope = 4.478388E-3 +/- 7.191606E-4 Intercept = 2.023332E+1 +/- 9.013747E-3 Residue = 2.436267E-8
Sample Voltage = 7.580000E-1 Sample Voltage Uncertainty = 1.000000E-3
Sample Current = 9.871870E+0 Sample Current Uncertainty = 1.000000E-5
t(s)	T(K)	dT(K)
0.000000	20.044839	0.010000
0.110006	20.042798	0.010000
0.212012	20.044121	0.010000
0.314018	20.045859	0.010000
0.417024	20.045630	0.010000
0.519030	20.046797	0.010000
0.621036	20.043173	0.010000
0.723041	20.043643	0.010000
0.825047	20.047962	0.010000
0.928053	20.044644	0.010000
1.030059	20.047207	0.010000
1.133065	20.048806	0.010000
1.235071	20.047495	0.010000
1.337077	20.049747	0.010000
1.439082	20.048234	0.010000
1.541088	20.043903	0.010000
1.643094	20.046012	0.010000
1.745100	20.046499	0.010000
1.848105	20.047997	0.010000
1.951112	20.050465	0.010000
2.053117	20.047658	0.010000
2.155123	20.048408	0.010000
2.257129	20.052115	0.010000
2.359135	20.048269	0.010000
2.461141	20.047214	0.010000
2.564147	20.049849	0.010000
2.666152	20.051856	0.010000
2.768158	20.050269	0.010000
2.870164	20.052249	0.010000
2.972170	20.053238	0.010000
3.074176	20.052445	0.010000
3.176182	20.051383	0.010000
3.279188	20.052050	0.010000
3.381193	20.050782	0.010000
3.483199	20.051860	0.010000
3.585205	20.054194	0.010000
3.687211	20.054144	0.010000
3.790217	20.053019	0.010000
3.893223	20.055592	0.010000
3.996229	20.053100	0.010000
4.098234	20.055749	0.010000
4.200240	20.053379	0.010000
4.303246	20.052765	0.010000
4.406252	20.056508	0.010000
4.509258	20.056563	0.010000
4.612264	20.055384	0.010000
4.714270	20.055042	0.010000
4.817276	20.055641	0.010000
4.919281	20.054221	0.010000
5.021287	20.057578	0.010000
5.123293	20.057943	0.010000
5.226299	20.053305	0.010000
5.328305	20.056997	0.010000
5.431311	20.056942	0.010000
5.533317	20.059756	0.010000
5.635322	20.063561	0.010000
5.737328	20.067034	0.010000
5.840334	20.074330	0.010000
5.942340	20.079513	0.010000
6.045346	20.082175	0.010000
6.148352	20.083757	0.010000
6.251358	20.091727	0.010000
6.353364	20.094005	0.010000
6.456369	20.100903	0.010000
6.559375	20.102489	0.010000
6.662381	20.109251	0.010000
6.764387	20.111063	0.010000
6.867393	20.115010	0.010000
6.970398	20.120763	0.010000
7.073405	20.125045	0.010000
7.175410	20.125506	0.010000
7.278416	20.133557	0.010000
7.380422	20.139077	0.010000
7.483428	20.143603	0.010000
7.586434	20.143858	0.010000
7.689440	20.152425	0.010000
7.791446	20.157284	0.010000
7.893452	20.159447	0.010000
7.995457	20.166214	0.010000
8.097463	20.171956	0.010000
8.200469	20.175241	0.010000
8.302475	20.181402	0.010000
8.404480	20.183054	0.010000
8.506486	20.189574	0.010000
8.608492	20.194918	0.010000
8.710498	20.200043	0.010000
8.812504	20.202678	0.010000
8.915510	20.208873	0.010000
9.018516	20.213116	0.010000
9.120522	20.217891	0.010000
9.222528	20.220242	0.010000
9.325533	20.224369	0.010000
9.428539	20.230831	0.010000
9.530545	20.237707	0.010000
9.632551	20.240932	0.010000
9.734557	20.244360	0.010000
9.837563	20.251435	0.010000
9.940568	20.257188	0.010000
10.043574	20.259801	0.010000
10.146580	20.262250	0.010000
10.249586	20.268092	0.010000
10.352592	20.271733	0.010000
10.454598	20.274742	0.010000
10.556604	20.279132	0.010000
10.659610	20.280648	0.010000
10.762616	20.283107	0.010000
10.865622	20.282769	0.010000
10.967627	20.283637	0.010000
11.070633	20.281822	0.010000
11.172639	20.283989	0.010000
11.274645	20.283381	0.010000
11.376651	20.282031	0.010000
11.479657	20.282781	0.010000
11.582663	20.283785	0.010000
11.685668	20.285833	0.010000
11.787674	20.289112	0.010000
11.889680	20.289274	0.010000
11.992686	20.287132	0.010000
12.094692	20.290585	0.010000
12.196698	20.286426	0.010000
12.298703	20.287004	0.010000
12.401709	20.288935	0.010000
12.504715	20.290996	0.010000
12.606721	20.290416	0.010000
12.709727	20.291019	0.010000
12.811733	20.290620	0.010000
12.914739	20.291814	0.010000
13.016745	20.292608	0.010000
13.118750	20.290284	0.010000
13.221756	20.289901	0.010000
13.324762	20.295456	0.010000
13.426768	20.292627	0.010000
13.528774	20.292674	0.010000
13.630780	20.293957	0.010000
13.732785	20.294131	0.010000
13.835791	20.296919	0.010000
13.937797	20.294780	0.010000
14.040803	20.295596	0.010000
14.142809	20.295150	0.010000
14.244815	20.297576	0.010000
14.346820	20.294899	0.010000
14.448826	20.300122	0.010000
14.550832	20.295178	0.010000
14.653838	20.300100	0.010000
14.756844	20.302135	0.010000
14.859850	20.300145	0.010000
14.961856	20.298413	0.010000
15.064862	20.298709	0.010000
