Sample : Ni
Pre-Pulse  Slope = 8.407258E-3 +/- 2.093157E-4 Intercept = 5.853712E+0 +/- 5.079229E-4 Residue = 3.413946E-9
Heat Pulse  Slope = 8.303624E-2 +/- 8.990373E-4 Intercept = 5.438751E+0 +/- 6.775275E-3 Residue = 3.804583E-8
Post-Pulse  Slope = 5.835659E-3 +/- 1.530698E-3 Intercept = 6.248523E+0 +/- 1.918430E-2 Residue = 1.102090E-7
Sample Voltage = 4.000000E-1 Sample Voltage Uncertainty = 1.000000E-3
Sample Current = 5.020110E+0 Sample Current Uncertainty = 1.000000E-5
t(s)	T(K)	dT(K)
0.000000	5.855078	0.010000
0.111006	5.854703	0.010000
0.213012	5.856063	0.010000
0.315018	5.857388	0.010000
0.418024	5.858132	0.010000
0.520030	5.858197	0.010000
0.622036	5.858105	0.010000
0.724041	5.859586	0.010000
0.826047	5.860604	0.010000
0.928053	5.862541	0.010000
1.030059	5.863425	0.010000
1.133065	5.864005	0.010000
1.235071	5.864788	0.010000
1.337077	5.864746	0.010000
1.440083	5.866587	0.010000
1.542088	5.866018	0.010000
1.644094	5.866536	0.010000
1.746100	5.867622	0.010000
1.849106	5.868963	0.010000
1.952112	5.869852	0.010000
2.055118	5.870629	0.010000
2.157124	5.871582	0.010000
2.259129	5.871952	0.010000
2.362135	5.873524	0.010000
2.464141	5.874315	0.010000
2.566147	5.874807	0.010000
2.669153	5.875708	0.010000
2.772159	5.877549	0.010000
2.874165	5.878276	0.010000
2.977170	5.878890	0.010000
3.079176	5.880254	0.010000
3.182182	5.881413	0.010000
3.285188	5.881178	0.010000
3.388194	5.881752	0.010000
3.490200	5.883051	0.010000
3.592206	5.884738	0.010000
3.694211	5.884051	0.010000
3.797217	5.886149	0.010000
3.899223	5.886152	0.010000
4.001229	5.886364	0.010000
4.103235	5.888428	0.010000
4.206241	5.888077	0.010000
4.308247	5.890409	0.010000
4.411252	5.889999	0.010000
4.514258	5.891672	0.010000
4.617264	5.893129	0.010000
4.719270	5.893174	0.010000
4.822276	5.893957	0.010000
4.925282	5.895167	0.010000
5.028287	5.896205	0.010000
5.131294	5.896948	0.010000
5.233299	5.898938	0.010000
5.335305	5.897215	0.010000
5.437311	5.898617	0.010000
5.540317	5.901973	0.010000
5.642323	5.904625	0.010000
5.745328	5.914554	0.010000
5.848334	5.920895	0.010000
5.950340	5.929391	0.010000
6.053346	5.940139	0.010000
6.155352	5.948711	0.010000
6.258358	5.956944	0.010000
6.360364	5.963307	0.010000
6.463370	5.974983	0.010000
6.565375	5.981731	0.010000
6.667381	5.994561	0.010000
6.770387	6.001578	0.010000
6.873393	6.008425	0.010000
6.975399	6.021003	0.010000
7.078405	6.028119	0.010000
7.180411	6.037326	0.010000
7.282417	6.042956	0.010000
7.384422	6.053001	0.010000
7.487428	6.061136	0.010000
7.590434	6.072427	0.010000
7.693440	6.079119	0.010000
7.795446	6.085312	0.010000
7.897452	6.096481	0.010000
8.000458	6.102359	0.010000
8.102464	6.114648	0.010000
8.204469	6.118229	0.010000
8.306475	6.125983	0.010000
8.408481	6.138654	0.010000
8.510487	6.146155	0.010000
8.613493	6.155072	0.010000
8.715498	6.160107	0.010000
8.817504	6.168791	0.010000
8.919510	6.176313	0.010000
9.021516	6.181558	0.010000
9.124522	6.194943	0.010000
9.226528	6.199107	0.010000
9.328534	6.213366	0.010000
9.430540	6.224151	0.010000
9.532546	6.229722	0.010000
9.635551	6.238470	0.010000
9.738557	6.250085	0.010000
9.841563	6.251915	0.010000
9.943569	6.261556	0.010000
10.046575	6.269244	0.010000
10.148581	6.279755	0.010000
10.251586	6.286508	0.010000
10.354592	6.287071	0.010000
10.457598	6.297779	0.010000
10.559604	6.306176	0.010000
10.661610	6.305594	0.010000
10.763616	6.307403	0.010000
10.865622	6.308026	0.010000
10.967628	6.309462	0.010000
11.070633	6.308684	0.010000
11.173639	6.315877	0.010000
11.275645	6.313107	0.010000
11.377651	6.317278	0.010000
11.479657	6.315724	0.010000
11.581663	6.319729	0.010000
11.683668	6.312905	0.010000
11.786674	6.313947	0.010000
11.889680	6.315459	0.010000
11.992686	6.314783	0.010000
12.094692	6.317215	0.010000
12.197698	6.316876	0.010000
12.299704	6.319452	0.010000
12.401710	6.322350	0.010000
12.503715	6.326587	0.010000
12.605721	6.326198	0.010000
12.708727	6.331507	0.010000
12.810733	6.329989	0.010000
12.912739	6.327301	0.010000
13.015745	6.323232	0.010000
13.118751	6.327608	0.010000
13.220756	6.323541	0.010000
13.322762	6.325065	0.010000
13.424768	6.324378	0.010000
13.526774	6.326329	0.010000
13.629780	6.326092	0.010000
13.731785	6.327312	0.010000
13.833791	6.327705	0.010000
13.936797	6.326991	0.010000
14.039803	6.332423	0.010000
14.142809	6.332715	0.010000
14.245815	6.331463	0.010000
14.347821	6.330584	0.010000
14.450827	6.331462	0.010000
14.553833	6.333435	0.010000
14.656838	6.334011	0.010000
14.759844	6.335907	0.010000
14.861850	6.336163	0.010000
14.963856	6.340903	0.010000
15.065862	6.336121	0.010000
Sample : Ni
Pre-Pulse  Slope = 6.954429E-3 +/- 1.969212E-4 Intercept = 6.504556E+0 +/- 4.888675E-4 Residue = 3.301352E-9
Heat Pulse  Slope = 6.390420E-2 +/- 3.981624E-4 Intercept = 6.203733E+0 +/- 2.997456E-3 Residue = 7.456257E-9
Post-Pulse  Slope = 6.401050E-3 +/- 3.188700E-4 Intercept = 6.793364E+0 +/- 3.994448E-3 Residue = 4.777051E-9
Sample Voltage = 4.000000E-1 Sample Voltage Uncertainty = 1.000000E-3
Sample Current = 5.020120E+0 Sample Current Uncertainty = 1.000000E-5
t(s)	T(K)	dT(K)
0.000000	6.505707	0.010000
0.110006	6.505830	0.010000
0.213012	6.505030	0.010000
0.315018	6.505014	0.010000
0.417024	6.507273	0.010000
0.519030	6.509192	0.010000
0.621036	6.508422	0.010000
0.724041	6.509122	0.010000
0.826047	6.510705	0.010000
0.928053	6.511988	0.010000
1.030059	6.511070	0.010000
1.132065	6.511805	0.010000
1.234070	6.513068	0.010000
1.336076	6.513940	0.010000
1.438082	6.513845	0.010000
1.540088	6.515649	0.010000
1.642094	6.516901	0.010000
1.744100	6.515858	0.010000
1.847106	6.517360	0.010000
1.950111	6.518269	0.010000
2.052117	6.518192	0.010000
2.154123	6.520040	0.010000
2.257129	6.519873	0.010000
2.359135	6.521354	0.010000
2.461141	6.521230	0.010000
2.563147	6.522838	0.010000
2.665153	6.523146	0.010000
2.768158	6.523017	0.010000
2.870164	6.524474	0.010000
2.973170	6.525224	0.010000
3.076176	6.526592	0.010000
3.179182	6.527152	0.010000
3.281188	6.527216	0.010000
3.384193	6.527019	0.010000
3.486199	6.528309	0.010000
3.588205	6.529777	0.010000
3.690211	6.531413	0.010000
3.792217	6.531264	0.010000
3.894223	6.531705	0.010000
3.997229	6.531858	0.010000
4.100235	6.531607	0.010000
4.203240	6.533043	0.010000
4.306246	6.534446	0.010000
4.408252	6.535059	0.010000
4.511258	6.535790	0.010000
4.614264	6.536645	0.010000
4.716269	6.537469	0.010000
4.818275	6.538698	0.010000
4.920281	6.539450	0.010000
5.022287	6.538679	0.010000
5.125293	6.539539	0.010000
5.228299	6.540534	0.010000
5.330305	6.543258	0.010000
5.432311	6.549076	0.010000
5.535316	6.554478	0.010000
5.638322	6.562783	0.010000
5.740328	6.569064	0.010000
5.842334	6.574371	0.010000
5.944340	6.580809	0.010000
6.046346	6.590510	0.010000
6.148352	6.595169	0.010000
6.250357	6.602511	0.010000
6.353363	6.608891	0.010000
6.455369	6.616021	0.010000
6.558375	6.622942	0.010000
6.660381	6.628312	0.010000
6.762387	6.636016	0.010000
6.864392	6.642425	0.010000
6.967398	6.648019	0.010000
7.069404	6.656836	0.010000
7.172410	6.662882	0.010000
7.275416	6.669768	0.010000
7.378422	6.677259	0.010000
7.480428	6.682112	0.010000
7.582434	6.689182	0.010000
7.685440	6.694098	0.010000
7.787445	6.701536	0.010000
7.889451	6.709293	0.010000
7.991457	6.714236	0.010000
8.093463	6.722184	0.010000
8.195468	6.726967	0.010000
8.297474	6.734375	0.010000
8.400480	6.739708	0.010000
8.502486	6.746972	0.010000
8.604492	6.753364	0.010000
8.706498	6.759344	0.010000
8.809504	6.765914	0.010000
8.912509	6.772329	0.010000
9.015515	6.778744	0.010000
9.117521	6.784344	0.010000
9.220527	6.790573	0.010000
9.323533	6.798241	0.010000
9.426539	6.804072	0.010000
9.528545	6.808675	0.010000
9.631551	6.816574	0.010000
9.733557	6.822857	0.010000
9.836563	6.828514	0.010000
9.938568	6.834663	0.010000
10.040574	6.840963	0.010000
10.142580	6.846694	0.010000
10.244586	6.853848	0.010000
10.347592	6.858074	0.010000
10.450598	6.857917	0.010000
10.552603	6.859613	0.010000
10.655609	6.862367	0.010000
10.758615	6.864044	0.010000
10.861621	6.863684	0.010000
10.963627	6.862974	0.010000
11.065633	6.864234	0.010000
11.168639	6.865052	0.010000
11.270645	6.865193	0.010000
11.372650	6.867321	0.010000
11.474656	6.867290	0.010000
11.576662	6.867230	0.010000
11.679668	6.868081	0.010000
11.782674	6.868075	0.010000
11.884680	6.869398	0.010000
11.986685	6.870104	0.010000
12.088691	6.869759	0.010000
12.190697	6.871996	0.010000
12.292703	6.870026	0.010000
12.394709	6.872285	0.010000
12.496715	6.873395	0.010000
12.598721	6.873937	0.010000
12.700727	6.876139	0.010000
12.802732	6.876364	0.010000
12.905738	6.875573	0.010000
13.007744	6.876868	0.010000
13.109750	6.877706	0.010000
13.212756	6.878468	0.010000
13.315762	6.878272	0.010000
13.417768	6.878414	0.010000
13.520773	6.880560	0.010000
13.623779	6.880732	0.010000
13.726785	6.880596	0.010000
13.829791	6.881466	0.010000
13.931797	6.882952	0.010000
14.034802	6.883364	0.010000
14.136808	6.883675	0.010000
14.238814	6.883522	0.010000
14.340820	6.886210	0.010000
14.442826	6.887126	0.010000
14.544832	6.885992	0.010000
14.647838	6.885762	0.010000
14.749844	6.886729	0.010000
14.852849	6.888062	0.010000
14.955855	6.890393	0.010000
15.058861	6.891336	0.010000
Sample : Ni
Pre-Pulse  Slope = 6.199549E-3 +/- 2.132051E-4 Intercept = 6.999163E+0 +/- 5.179417E-4 Residue = 3.545545E-9
Heat Pulse  Slope = 5.246368E-2 +/- 4.305673E-4 Intercept = 6.755012E+0 +/- 3.242092E-3 Residue = 8.691388E-9
Post-Pulse  Slope = 5.840586E-3 +/- 3.167554E-4 Intercept = 7.233086E+0 +/- 3.966869E-3 Residue = 4.725301E-9
Sample Voltage = 4.000000E-1 Sample Voltage Uncertainty = 1.000000E-3
Sample Current = 5.020120E+0 Sample Current Uncertainty = 1.000000E-5
t(s)	T(K)	dT(K)
0.000000	6.999337	0.010000
0.111006	6.998960	0.010000
0.213012	7.000157	0.010000
0.315018	7.001083	0.010000
0.418024	7.002634	0.010000
0.520030	7.002773	0.010000
0.622035	7.003917	0.010000
0.724041	7.003462	0.010000
0.827047	7.003633	0.010000
0.929053	7.005511	0.010000
1.031059	7.006135	0.010000
1.134065	7.006172	0.010000
1.237071	7.006361	0.010000
1.340076	7.007884	0.010000
1.443082	7.007365	0.010000
1.546088	7.009273	0.010000
1.649094	7.009468	0.010000
1.751100	7.009153	0.010000
1.854106	7.011328	0.010000
1.956111	7.010557	0.010000
2.058117	7.012305	0.010000
2.161123	7.011345	0.010000
2.263129	7.013469	0.010000
2.365135	7.014493	0.010000
2.468141	7.013332	0.010000
2.570147	7.013705	0.010000
2.673152	7.015344	0.010000
2.775158	7.016551	0.010000
2.877164	7.017465	0.010000
2.980170	7.017595	0.010000
3.083176	7.018613	0.010000
3.186182	7.019130	0.010000
3.288188	7.019946	0.010000
3.390193	7.020406	0.010000
3.492199	7.021091	0.010000
3.594205	7.020902	0.010000
3.697211	7.022300	0.010000
3.799217	7.022672	0.010000
3.901223	7.024001	0.010000
4.003229	7.024959	0.010000
4.105235	7.024137	0.010000
4.208241	7.025702	0.010000
4.310246	7.026579	0.010000
4.412252	7.026338	0.010000
4.514258	7.026764	0.010000
4.616264	7.028072	0.010000
4.718269	7.028273	0.010000
4.820275	7.029614	0.010000
4.923281	7.029833	0.010000
5.025287	7.029112	0.010000
5.127293	7.031425	0.010000
5.229299	7.032583	0.010000
5.332305	7.033097	0.010000
5.434310	7.038522	0.010000
5.537316	7.044467	0.010000
5.639322	7.048552	0.010000
5.742328	7.055893	0.010000
5.845334	7.061792	0.010000
5.947340	7.066599	0.010000
6.049346	7.070473	0.010000
6.151351	7.076973	0.010000
6.254357	7.082969	0.010000
6.357363	7.088603	0.010000
6.460369	7.094275	0.010000
6.562375	7.098818	0.010000
6.664381	7.105965	0.010000
6.766387	7.110177	0.010000
6.868392	7.114229	0.010000
6.970398	7.120874	0.010000
7.072404	7.127286	0.010000
7.174410	7.130778	0.010000
7.276416	7.136397	0.010000
7.378422	7.142722	0.010000
7.480428	7.149624	0.010000
7.582434	7.153571	0.010000
7.685439	7.160280	0.010000
7.788445	7.163710	0.010000
7.890451	7.168163	0.010000
7.992457	7.173782	0.010000
8.094463	7.179631	0.010000
8.196468	7.185409	0.010000
8.298474	7.191302	0.010000
8.400480	7.195248	0.010000
8.502486	7.199704	0.010000
8.604492	7.206365	0.010000
8.707498	7.211653	0.010000
8.809504	7.217124	0.010000
8.912509	7.221368	0.010000
9.015515	7.227230	0.010000
9.118521	7.232094	0.010000
9.220527	7.236885	0.010000
9.322533	7.242756	0.010000
9.424539	7.249619	0.010000
9.526545	7.253832	0.010000
9.628551	7.259228	0.010000
9.731556	7.263786	0.010000
9.834562	7.267614	0.010000
9.936568	7.273658	0.010000
10.038574	7.279186	0.010000
10.140580	7.282537	0.010000
10.242586	7.288710	0.010000
10.344591	7.291548	0.010000
10.446597	7.293080	0.010000
10.548603	7.294172	0.010000
10.650609	7.294915	0.010000
10.752615	7.295738	0.010000
10.855621	7.297038	0.010000
10.957626	7.298434	0.010000
11.060632	7.297400	0.010000
11.162638	7.297693	0.010000
11.265644	7.300307	0.010000
11.367650	7.300427	0.010000
11.469656	7.298888	0.010000
11.572662	7.300285	0.010000
11.674667	7.301102	0.010000
11.776673	7.301263	0.010000
11.878679	7.302306	0.010000
11.980685	7.303498	0.010000
12.082691	7.303795	0.010000
12.185697	7.304460	0.010000
12.288702	7.306507	0.010000
12.391708	7.305618	0.010000
12.494714	7.305803	0.010000
12.597720	7.305928	0.010000
12.699726	7.307601	0.010000
12.802732	7.307061	0.010000
12.904738	7.307706	0.010000
13.006743	7.309819	0.010000
13.109750	7.310200	0.010000
13.211755	7.309315	0.010000
13.313761	7.309875	0.010000
13.415767	7.312096	0.010000
13.517773	7.311843	0.010000
13.619779	7.312918	0.010000
13.722785	7.313362	0.010000
13.824790	7.314251	0.010000
13.927796	7.314384	0.010000
14.030802	7.315405	0.010000
14.133808	7.314734	0.010000
14.236814	7.317195	0.010000
14.338820	7.316512	0.010000
14.441826	7.317394	0.010000
14.544832	7.319184	0.010000
14.647838	7.318314	0.010000
14.750844	7.319713	0.010000
14.853849	7.319785	0.010000
14.956855	7.320123	0.010000
15.058861	7.321974	0.010000
Sample : Ni
Pre-Pulse  Slope = 5.521369E-3 +/- 2.258403E-4 Intercept = 7.437669E+0 +/- 5.493677E-4 Residue = 3.994075E-9
Heat Pulse  Slope = 4.440098E-2 +/- 3.422517E-4 Intercept = 7.229653E+0 +/- 2.581966E-3 Residue = 5.525053E-9
Post-Pulse  Slope = 5.316254E-3 +/- 3.924509E-4 Intercept = 7.632121E+0 +/- 4.922568E-3 Residue = 7.266842E-9
Sample Voltage = 4.000000E-1 Sample Voltage Uncertainty = 1.000000E-3
Sample Current = 5.002013E+0 Sample Current Uncertainty = 1.000000E-5
t(s)	T(K)	dT(K)
0.000000	7.437516	0.010000
0.111006	7.438731	0.010000
0.214012	7.438846	0.010000
0.316018	7.439602	0.010000
0.419024	7.439323	0.010000
0.521029	7.439958	0.010000
0.623035	7.441639	0.010000
0.725041	7.440893	0.010000
0.828047	7.442615	0.010000
0.930053	7.443120	0.010000
1.032059	7.442665	0.010000
1.135065	7.442652	0.010000
1.238070	7.444047	0.010000
1.340076	7.444655	0.010000
1.443082	7.445777	0.010000
1.546088	7.446627	0.010000
1.648094	7.447676	0.010000
1.751100	7.447310	0.010000
1.854106	7.448641	0.010000
1.957112	7.449245	0.010000
2.060118	7.449743	0.010000
2.163124	7.449567	0.010000
2.266129	7.450968	0.010000
2.368135	7.451141	0.010000
2.470141	7.451262	0.010000
2.573147	7.451638	0.010000
2.676153	7.452136	0.010000
2.779159	7.453463	0.010000
2.882164	7.453725	0.010000
2.985170	7.454668	0.010000
3.088176	7.454212	0.010000
3.190182	7.454079	0.010000
3.293188	7.455288	0.010000
3.395194	7.455755	0.010000
3.497200	7.458033	0.010000
3.600206	7.458297	0.010000
3.703212	7.458527	0.010000
3.806218	7.457933	0.010000
3.908223	7.458442	0.010000
4.011229	7.459477	0.010000
4.114235	7.460625	0.010000
4.217241	7.460727	0.010000
4.319247	7.461555	0.010000
4.422253	7.462049	0.010000
4.524259	7.462262	0.010000
4.626265	7.463841	0.010000
4.729270	7.463866	0.010000
4.832276	7.464477	0.010000
4.935282	7.464034	0.010000
5.038288	7.465895	0.010000
5.140294	7.466310	0.010000
5.242300	7.466074	0.010000
5.344306	7.467946	0.010000
5.447311	7.471857	0.010000
5.549317	7.475630	0.010000
5.651323	7.479885	0.010000
5.753329	7.485233	0.010000
5.855335	7.488263	0.010000
5.958341	7.493580	0.010000
6.061347	7.497735	0.010000
6.163352	7.501663	0.010000
6.265358	7.508568	0.010000
6.367364	7.512486	0.010000
6.470370	7.517258	0.010000
6.572376	7.521321	0.010000
6.674381	7.525945	0.010000
6.777387	7.531004	0.010000
6.880394	7.535134	0.010000
6.982399	7.540579	0.010000
7.084405	7.544687	0.010000
7.187411	7.547770	0.010000
7.289417	7.553908	0.010000
7.392423	7.557373	0.010000
7.495429	7.563178	0.010000
7.598434	7.567631	0.010000
7.700440	7.571853	0.010000
7.802446	7.575325	0.010000
7.904452	7.581776	0.010000
8.007458	7.585577	0.010000
8.109464	7.591096	0.010000
8.212470	7.594661	0.010000
8.315475	7.599091	0.010000
8.417481	7.602128	0.010000
8.520487	7.606901	0.010000
8.622493	7.611850	0.010000
8.725499	7.616761	0.010000
8.828505	7.621927	0.010000
8.930511	7.625717	0.010000
9.032516	7.630557	0.010000
9.134522	7.633276	0.010000
9.236528	7.639477	0.010000
9.339534	7.643517	0.010000
9.442540	7.646832	0.010000
9.544546	7.651895	0.010000
9.647552	7.655519	0.010000
9.749557	7.660713	0.010000
9.851563	7.665326	0.010000
9.953569	7.670468	0.010000
10.056575	7.673301	0.010000
10.159581	7.678589	0.010000
10.262587	7.681323	0.010000
10.364593	7.685777	0.010000
10.466599	7.687696	0.010000
10.568604	7.687501	0.010000
10.671610	7.688496	0.010000
10.773616	7.688442	0.010000
10.875622	7.690997	0.010000
10.978628	7.689629	0.010000
11.080634	7.690860	0.010000
11.182640	7.691321	0.010000
11.284645	7.691144	0.010000
11.386651	7.693936	0.010000
11.488657	7.694346	0.010000
11.590662	7.694566	0.010000
11.692668	7.694090	0.010000
11.795674	7.694874	0.010000
11.897680	7.694469	0.010000
12.000686	7.694811	0.010000
12.102692	7.697814	0.010000
12.204698	7.695900	0.010000
12.306704	7.697861	0.010000
12.409709	7.697200	0.010000
12.512715	7.698031	0.010000
12.615721	7.700106	0.010000
12.718727	7.700517	0.010000
12.821733	7.700361	0.010000
12.924739	7.700368	0.010000
13.027745	7.700674	0.010000
13.130751	7.700316	0.010000
13.232757	7.703531	0.010000
13.334763	7.702482	0.010000
13.436768	7.703914	0.010000
13.538774	7.705786	0.010000
13.640780	7.704907	0.010000
13.743786	7.705032	0.010000
13.846792	7.706076	0.010000
13.948798	7.705484	0.010000
14.050803	7.705428	0.010000
14.152809	7.708415	0.010000
14.254815	7.708080	0.010000
14.357821	7.709294	0.010000
14.460827	7.708884	0.010000
14.562833	7.708583	0.010000
14.664838	7.709642	0.010000
14.767844	7.709794	0.010000
14.869850	7.711084	0.010000
14.972856	7.709539	0.010000
15.074862	7.712170	0.010000
Sample : Ni
Pre-Pulse  Slope = 4.456498E-3 +/- 2.143857E-4 Intercept = 8.061494E+0 +/- 5.210273E-4 Residue = 3.582558E-9
Heat Pulse  Slope = 3.510116E-2 +/- 2.000234E-4 Intercept = 7.898411E+0 +/- 1.507374E-3 Residue = 1.885175E-9
Post-Pulse  Slope = 4.382518E-3 +/- 2.327356E-4 Intercept = 8.215778E+0 +/- 2.917362E-3 Residue = 2.558174E-9
Sample Voltage = 4.000000E-1 Sample Voltage Uncertainty = 1.000000E-3
Sample Current = 5.020120E+0 Sample Current Uncertainty = 1.000000E-5
t(s)	T(K)	dT(K)
0.000000	8.060094	0.010000
0.111007	8.062947	0.010000
0.214013	8.061278	0.010000
0.317019	8.062272	0.010000
0.420024	8.063880	0.010000
0.522030	8.063450	0.010000
0.625036	8.063569	0.010000
0.727042	8.064890	0.010000
0.829048	8.065226	0.010000
0.932054	8.065856	0.010000
1.034060	8.064915	0.010000
1.137065	8.066919	0.010000
1.239071	8.068228	0.010000
1.341077	8.067619	0.010000
1.444083	8.067844	0.010000
1.546089	8.067930	0.010000
1.648094	8.069057	0.010000
1.751101	8.069003	0.010000
1.854106	8.070231	0.010000
1.957112	8.070369	0.010000
2.060118	8.071090	0.010000
2.162124	8.071923	0.010000
2.264130	8.071885	0.010000
2.366136	8.072280	0.010000
2.468141	8.072506	0.010000
2.570147	8.072027	0.010000
2.673153	8.074252	0.010000
2.776159	8.072722	0.010000
2.879165	8.073945	0.010000
2.981171	8.074625	0.010000
3.084177	8.075429	0.010000
3.186182	8.076735	0.010000
3.288188	8.075263	0.010000
3.391194	8.076354	0.010000
3.494200	8.077857	0.010000
3.596206	8.076463	0.010000
3.698212	8.078343	0.010000
3.801218	8.078406	0.010000
3.903224	8.078853	0.010000
4.005229	8.079198	0.010000
4.108235	8.079755	0.010000
4.211241	8.081141	0.010000
4.314247	8.081161	0.010000
4.416253	8.081566	0.010000
4.519258	8.082860	0.010000
4.622264	8.082262	0.010000
4.725270	8.084618	0.010000
4.827276	8.083211	0.010000
4.929282	8.084856	0.010000
5.032288	8.084672	0.010000
5.135294	8.085933	0.010000
5.237300	8.084621	0.010000
5.339305	8.085515	0.010000
5.442311	8.089810	0.010000
5.544317	8.091899	0.010000
5.646323	8.095882	0.010000
5.748329	8.099842	0.010000
5.850335	8.102367	0.010000
5.952341	8.107052	0.010000
6.054347	8.111272	0.010000
6.156353	8.114239	0.010000
6.258358	8.117888	0.010000
6.360364	8.121681	0.010000
6.463370	8.125640	0.010000
6.565376	8.129383	0.010000
6.667381	8.131946	0.010000
6.769387	8.135760	0.010000
6.871393	8.139304	0.010000
6.974399	8.143167	0.010000
7.076405	8.146552	0.010000
7.178411	8.150324	0.010000
7.281416	8.153729	0.010000
7.384422	8.158281	0.010000
7.486428	8.160886	0.010000
7.588434	8.164258	0.010000
7.691440	8.168999	0.010000
7.794446	8.172412	0.010000
7.896452	8.175463	0.010000
7.999458	8.179557	0.010000
8.101463	8.182742	0.010000
8.204469	8.186902	0.010000
8.307475	8.189955	0.010000
8.409481	8.194625	0.010000
8.511487	8.196625	0.010000
8.614493	8.200232	0.010000
8.717499	8.203814	0.010000
8.819505	8.207528	0.010000
8.921510	8.212122	0.010000
9.024516	8.215384	0.010000
9.127522	8.218804	0.010000
9.229528	8.222269	0.010000
9.331534	8.225201	0.010000
9.433540	8.229491	0.010000
9.536546	8.233607	0.010000
9.638551	8.236030	0.010000
9.740557	8.238762	0.010000
9.843563	8.242643	0.010000
9.945569	8.246703	0.010000
10.047575	8.249892	0.010000
10.149580	8.253524	0.010000
10.251586	8.256118	0.010000
10.354592	8.260776	0.010000
10.457598	8.260391	0.010000
10.559604	8.261500	0.010000
10.661610	8.262038	0.010000
10.763616	8.265319	0.010000
10.865622	8.263176	0.010000
10.967628	8.262629	0.010000
11.070633	8.263749	0.010000
11.172639	8.265014	0.010000
11.275645	8.265985	0.010000
11.377651	8.265208	0.010000
11.479657	8.265969	0.010000
11.581663	8.266260	0.010000
11.683669	8.267810	0.010000
11.786674	8.266976	0.010000
11.889680	8.267141	0.010000
11.992686	8.268620	0.010000
12.095692	8.269015	0.010000
12.198698	8.269296	0.010000
12.300704	8.270063	0.010000
12.403709	8.269933	0.010000
12.505715	8.270786	0.010000
12.608721	8.272001	0.010000
12.710727	8.270934	0.010000
12.813733	8.271376	0.010000
12.915739	8.272377	0.010000
13.018745	8.273349	0.010000
13.121751	8.273030	0.010000
13.223756	8.272781	0.010000
13.325762	8.274272	0.010000
13.428768	8.274881	0.010000
13.530774	8.275280	0.010000
13.633780	8.275699	0.010000
13.736786	8.274964	0.010000
13.838792	8.276905	0.010000
13.941798	8.277268	0.010000
14.043803	8.277921	0.010000
14.145809	8.278396	0.010000
14.247815	8.277316	0.010000
14.350821	8.278277	0.010000
14.452827	8.279124	0.010000
14.554832	8.279753	0.010000
14.656838	8.279981	0.010000
14.758844	8.281087	0.010000
14.860850	8.280554	0.010000
14.963856	8.281582	0.010000
15.065862	8.281414	0.010000
Sample : Ni
Pre-Pulse  Slope = 4.468117E-3 +/- 1.860092E-4 Intercept = 8.370753E+0 +/- 4.514698E-4 Residue = 2.694460E-9
Heat Pulse  Slope = 3.139995E-2 +/- 2.761055E-4 Intercept = 8.230454E+0 +/- 2.080212E-3 Residue = 3.583230E-9
Post-Pulse  Slope = 4.274269E-3 +/- 3.489123E-4 Intercept = 8.508400E+0 +/- 4.371903E-3 Residue = 5.734083E-9
Sample Voltage = 4.000000E-1 Sample Voltage Uncertainty = 1.000000E-3
Sample Current = 5.020120E+0 Sample Current Uncertainty = 1.000000E-5
t(s)	T(K)	dT(K)
0.000000	8.372704	0.010000
0.110006	8.371402	0.010000
0.213012	8.371000	0.010000
0.315018	8.371517	0.010000
0.418024	8.372479	0.010000
0.521029	8.373231	0.010000
0.623035	8.372616	0.010000
0.725041	8.374300	0.010000
0.827047	8.374951	0.010000
0.929053	8.374885	0.010000
1.031059	8.375761	0.010000
1.133065	8.375507	0.010000
1.235071	8.376290	0.010000
1.337076	8.376771	0.010000
1.440082	8.377183	0.010000
1.543088	8.378438	0.010000
1.646094	8.378719	0.010000
1.749100	8.378066	0.010000
1.851106	8.379374	0.010000
1.953112	8.378176	0.010000
2.055118	8.379599	0.010000
2.158123	8.380628	0.010000
2.261129	8.380845	0.010000
2.363135	8.380617	0.010000
2.465141	8.381158	0.010000
2.568147	8.382984	0.010000
2.670153	8.383073	0.010000
2.773159	8.383233	0.010000
2.875165	8.383733	0.010000
2.977170	8.383767	0.010000
3.079176	8.384147	0.010000
3.182182	8.384611	0.010000
3.285188	8.385660	0.010000
3.388194	8.386854	0.010000
3.490200	8.385486	0.010000
3.592205	8.387317	0.010000
3.694211	8.387823	0.010000
3.797217	8.387717	0.010000
3.899223	8.387730	0.010000
4.001229	8.388773	0.010000
4.104235	8.388736	0.010000
4.206240	8.389842	0.010000
4.309246	8.389474	0.010000
4.411252	8.389545	0.010000
4.513258	8.390638	0.010000
4.615264	8.390984	0.010000
4.718270	8.392245	0.010000
4.821276	8.391928	0.010000
4.923281	8.392714	0.010000
5.025287	8.393550	0.010000
5.129293	8.393723	0.010000
5.231299	8.394964	0.010000
5.334305	8.395600	0.010000
5.437311	8.400504	0.010000
5.539317	8.403966	0.010000
5.642323	8.406324	0.010000
5.745328	8.410134	0.010000
5.847334	8.413211	0.010000
5.950340	8.417051	0.010000
6.052346	8.419920	0.010000
6.155352	8.423858	0.010000
6.258358	8.427298	0.010000
6.360363	8.430283	0.010000
6.462369	8.433053	0.010000
6.565375	8.436128	0.010000
6.667381	8.439051	0.010000
6.769387	8.443632	0.010000
6.871393	8.446573	0.010000
6.973399	8.448759	0.010000
7.076405	8.453496	0.010000
7.178411	8.455539	0.010000
7.280416	8.458434	0.010000
7.382422	8.463657	0.010000
7.484428	8.466192	0.010000
7.586434	8.469584	0.010000
7.689440	8.471700	0.010000
7.791445	8.474535	0.010000
7.893451	8.478143	0.010000
7.995457	8.481247	0.010000
8.098463	8.484826	0.010000
8.201469	8.488042	0.010000
8.303475	8.492159	0.010000
8.406481	8.494001	0.010000
8.509487	8.496336	0.010000
8.611492	8.500710	0.010000
8.714498	8.503842	0.010000
8.816504	8.507461	0.010000
8.918510	8.510830	0.010000
9.020516	8.513057	0.010000
9.122521	8.517061	0.010000
9.224527	8.521347	0.010000
9.326533	8.521980	0.010000
9.428539	8.526616	0.010000
9.530545	8.530633	0.010000
9.633551	8.531945	0.010000
9.736557	8.535800	0.010000
9.838562	8.539882	0.010000
9.940568	8.542383	0.010000
10.042574	8.545326	0.010000
10.144580	8.549554	0.010000
10.247586	8.551494	0.010000
10.349592	8.551939	0.010000
10.451598	8.554148	0.010000
10.553604	8.552306	0.010000
10.656610	8.555343	0.010000
10.759615	8.556424	0.010000
10.861621	8.553721	0.010000
10.963627	8.555162	0.010000
11.066633	8.557170	0.010000
11.169639	8.557024	0.010000
11.271645	8.556227	0.010000
11.373651	8.556344	0.010000
11.475656	8.555960	0.010000
11.578662	8.558347	0.010000
11.681668	8.559211	0.010000
11.783674	8.558602	0.010000
11.886680	8.559260	0.010000
11.989686	8.559741	0.010000
12.091691	8.559522	0.010000
12.193697	8.559798	0.010000
12.295703	8.560419	0.010000
12.397709	8.561647	0.010000
12.500715	8.561600	0.010000
12.602721	8.563170	0.010000
12.704727	8.563361	0.010000
12.807733	8.561776	0.010000
12.910738	8.564002	0.010000
13.012744	8.563234	0.010000
13.115750	8.563479	0.010000
13.217756	8.565155	0.010000
13.319762	8.565368	0.010000
13.422768	8.565329	0.010000
13.524774	8.566707	0.010000
13.627779	8.567160	0.010000
13.729785	8.566598	0.010000
13.832791	8.569170	0.010000
13.934797	8.567736	0.010000
14.036803	8.568960	0.010000
14.139809	8.569128	0.010000
14.242815	8.569060	0.010000
14.345820	8.568907	0.010000
14.447826	8.569805	0.010000
14.549832	8.570882	0.010000
14.651838	8.570578	0.010000
14.754844	8.571743	0.010000
14.857850	8.571594	0.010000
14.959856	8.573440	0.010000
15.062861	8.573490	0.010000
Sample : Ni
Pre-Pulse  Slope = 4.086629E-3 +/- 2.174187E-4 Intercept = 8.740296E+0 +/- 5.282972E-4 Residue = 3.691570E-9
Heat Pulse  Slope = 1.231917E-1 +/- 6.241257E-3 Intercept = 8.070961E+0 +/- 4.702153E-2 Residue = 1.834797E-6
Post-Pulse  Slope = 6.655372E-3 +/- 4.662059E-4 Intercept = 9.339180E+0 +/- 5.845965E-3 Residue = 1.025004E-8
Sample Voltage = 8.010000E-1 Sample Voltage Uncertainty = 1.000000E-3
Sample Current = 9.998900E+0 Sample Current Uncertainty = 1.000000E-5
t(s)	T(K)	dT(K)
0.000000	8.739562	0.010000
0.111006	8.741341	0.010000
0.213012	8.741226	0.010000
0.315018	8.741987	0.010000
0.417024	8.741868	0.010000
0.520030	8.742925	0.010000
0.622036	8.743668	0.010000
0.724041	8.743489	0.010000
0.826047	8.743159	0.010000
0.929053	8.743527	0.010000
1.032059	8.744861	0.010000
1.135065	8.745273	0.010000
1.237071	8.744653	0.010000
1.340076	8.744844	0.010000
1.443082	8.745321	0.010000
1.545088	8.746734	0.010000
1.647094	8.747899	0.010000
1.750100	8.747600	0.010000
1.852106	8.748053	0.010000
1.955112	8.748389	0.010000
2.058118	8.748023	0.010000
2.161124	8.748504	0.010000
2.263129	8.750176	0.010000
2.366135	8.750301	0.010000
2.468141	8.750112	0.010000
2.571147	8.750677	0.010000
2.673153	8.751164	0.010000
2.776159	8.752115	0.010000
2.878165	8.752884	0.010000
2.981171	8.751890	0.010000
3.084177	8.753646	0.010000
3.186182	8.753087	0.010000
3.289188	8.753219	0.010000
3.392194	8.754704	0.010000
3.494200	8.754870	0.010000
3.596206	8.753524	0.010000
3.698212	8.754959	0.010000
3.800217	8.755689	0.010000
3.903223	8.757441	0.010000
4.005229	8.756441	0.010000
4.107235	8.756854	0.010000
4.209240	8.758283	0.010000
4.312246	8.757253	0.010000
4.414252	8.758011	0.010000
4.516258	8.757945	0.010000
4.618264	8.758695	0.010000
4.721270	8.759001	0.010000
4.823276	8.760509	0.010000
4.926281	8.760296	0.010000
5.028287	8.759790	0.010000
5.129293	8.759784	0.010000
5.232299	8.759553	0.010000
5.335305	8.768060	0.010000
5.438311	8.776614	0.010000
5.540317	8.787527	0.010000
5.642323	8.797261	0.010000
5.744328	8.806952	0.010000
5.846334	8.816590	0.010000
5.949340	8.827361	0.010000
6.051346	8.836094	0.010000
6.153352	8.846354	0.010000
6.255358	8.854370	0.010000
6.357364	8.865704	0.010000
6.460370	8.876953	0.010000
6.562375	8.885305	0.010000
6.665381	8.894886	0.010000
6.768387	8.904306	0.010000
6.871393	8.915490	0.010000
6.973399	8.923864	0.010000
7.076405	8.935725	0.010000
7.179410	8.944514	0.010000
7.281416	8.954090	0.010000
7.383422	8.964187	0.010000
7.485428	8.974331	0.010000
7.587434	8.985254	0.010000
7.689440	8.997795	0.010000
7.791446	9.013044	0.010000
7.893451	9.027391	0.010000
7.996457	9.045475	0.010000
8.099463	9.062753	0.010000
8.201469	9.078582	0.010000
8.304475	9.094753	0.010000
8.406481	9.111190	0.010000
8.509487	9.128561	0.010000
8.611493	9.144478	0.010000
8.714499	9.160607	0.010000
8.817504	9.175952	0.010000
8.919510	9.196764	0.010000
9.022516	9.212568	0.010000
9.125522	9.225296	0.010000
9.227528	9.243074	0.010000
9.330534	9.258938	0.010000
9.433539	9.274780	0.010000
9.535545	9.289637	0.010000
9.638551	9.307605	0.010000
9.741557	9.321433	0.010000
9.844563	9.339923	0.010000
9.947569	9.354025	0.010000
10.050575	9.367675	0.010000
10.153581	9.387038	0.010000
10.255587	9.398847	0.010000
10.357592	9.405154	0.010000
10.459598	9.407057	0.010000
10.562604	9.408551	0.010000
10.665610	9.410091	0.010000
10.767616	9.409294	0.010000
10.869622	9.410643	0.010000
10.971627	9.411951	0.010000
11.073633	9.411297	0.010000
11.176639	9.412295	0.010000
11.279645	9.414992	0.010000
11.382651	9.413824	0.010000
11.485657	9.415782	0.010000
11.587663	9.417413	0.010000
11.690669	9.417762	0.010000
11.792675	9.417798	0.010000
11.894680	9.420027	0.010000
11.997686	9.417378	0.010000
12.100692	9.419514	0.010000
12.203698	9.420184	0.010000
12.305704	9.421484	0.010000
12.407710	9.422046	0.010000
12.509716	9.423058	0.010000
12.612721	9.423085	0.010000
12.715727	9.424898	0.010000
12.818733	9.424477	0.010000
12.920739	9.425037	0.010000
13.023745	9.426392	0.010000
13.125751	9.426044	0.010000
13.227757	9.426493	0.010000
13.329762	9.428932	0.010000
13.431768	9.430320	0.010000
13.534774	9.430327	0.010000
13.636780	9.429070	0.010000
13.739786	9.431071	0.010000
13.841792	9.430202	0.010000
13.943798	9.429538	0.010000
14.046803	9.431058	0.010000
14.148809	9.433435	0.010000
14.250815	9.432180	0.010000
14.353821	9.435186	0.010000
14.455827	9.434320	0.010000
14.558833	9.433629	0.010000
14.660839	9.435058	0.010000
14.763844	9.437551	0.010000
14.865850	9.438264	0.010000
14.968856	9.438139	0.010000
15.071862	9.438582	0.010000
Sample : Ni
Pre-Pulse  Slope = 5.875715E-3 +/- 2.922301E-4 Intercept = 9.690569E+0 +/- 7.102779E-4 Residue = 6.657520E-9
Heat Pulse  Slope = 4.011389E-2 +/- 3.995422E-4 Intercept = 9.510068E+0 +/- 3.012305E-3 Residue = 7.528999E-9
Post-Pulse  Slope = 5.587683E-3 +/- 4.348935E-4 Intercept = 9.864096E+0 +/- 5.454256E-3 Residue = 8.889850E-9
Sample Voltage = 4.020000E-1 Sample Voltage Uncertainty = 1.000000E-3
Sample Current = 5.020130E+0 Sample Current Uncertainty = 1.000000E-5
t(s)	T(K)	dT(K)
0.000000	9.691299	0.010000
0.112006	9.690562	0.010000
0.215012	9.691158	0.010000
0.317018	9.693187	0.010000
0.419024	9.692765	0.010000
0.521029	9.694333	0.010000
0.624035	9.695199	0.010000
0.727041	9.693981	0.010000
0.830048	9.695278	0.010000
0.932053	9.695240	0.010000
1.034059	9.696103	0.010000
1.136065	9.698584	0.010000
1.239071	9.697838	0.010000
1.342077	9.697675	0.010000
1.445083	9.699600	0.010000
1.548089	9.700165	0.010000
1.650095	9.698992	0.010000
1.752100	9.701574	0.010000
1.854106	9.702366	0.010000
1.956112	9.702441	0.010000
2.059118	9.701770	0.010000
2.161123	9.702998	0.010000
2.264129	9.703070	0.010000
2.366135	9.702861	0.010000
2.468141	9.705780	0.010000
2.571147	9.706788	0.010000
2.674153	9.705103	0.010000
2.777159	9.706444	0.010000
2.880165	9.707064	0.010000
2.982171	9.708115	0.010000
3.084176	9.709164	0.010000
3.186182	9.711294	0.010000
3.288188	9.710370	0.010000
3.390194	9.709871	0.010000
3.493200	9.711298	0.010000
3.596206	9.712154	0.010000
3.699212	9.712071	0.010000
3.801217	9.713129	0.010000
3.904223	9.712704	0.010000
4.007229	9.714317	0.010000
4.110235	9.715467	0.010000
4.212241	9.716924	0.010000
4.314247	9.714539	0.010000
4.416253	9.716758	0.010000
4.519258	9.716778	0.010000
4.622264	9.718404	0.010000
4.724270	9.716534	0.010000
4.826276	9.718530	0.010000
4.929282	9.718677	0.010000
5.031288	9.719832	0.010000
5.134294	9.721086	0.010000
5.236300	9.722380	0.010000
5.338305	9.725902	0.010000
5.440311	9.727515	0.010000
5.542317	9.731463	0.010000
5.644323	9.735779	0.010000
5.746328	9.739229	0.010000
5.849334	9.743646	0.010000
5.952341	9.748595	0.010000
6.055346	9.753329	0.010000
6.158352	9.757153	0.010000
6.261358	9.760775	0.010000
6.363364	9.764300	0.010000
6.465370	9.768530	0.010000
6.568376	9.772690	0.010000
6.670382	9.779301	0.010000
6.772388	9.782056	0.010000
6.874393	9.786400	0.010000
6.977399	9.790777	0.010000
7.079405	9.793867	0.010000
7.182411	9.798223	0.010000
7.285417	9.802830	0.010000
7.387423	9.807719	0.010000
7.490428	9.810631	0.010000
7.593434	9.814017	0.010000
7.696440	9.819831	0.010000
7.798446	9.822615	0.010000
7.901452	9.826090	0.010000
8.003458	9.828819	0.010000
8.106463	9.835068	0.010000
8.208469	9.839150	0.010000
8.310475	9.844017	0.010000
8.412481	9.846376	0.010000
8.514487	9.851651	0.010000
8.617493	9.856839	0.010000
8.720499	9.860992	0.010000
8.822505	9.863014	0.010000
8.925510	9.868576	0.010000
9.028516	9.871290	0.010000
9.131522	9.875134	0.010000
9.234528	9.880715	0.010000
9.336534	9.882806	0.010000
9.438540	9.887333	0.010000
9.540545	9.892170	0.010000
9.642551	9.894823	0.010000
9.745557	9.898937	0.010000
9.848563	9.902377	0.010000
9.951569	9.908595	0.010000
10.054575	9.912558	0.010000
10.156581	9.915363	0.010000
10.258587	9.921447	0.010000
10.360592	9.920618	0.010000
10.462598	9.922274	0.010000
10.565604	9.922784	0.010000
10.667610	9.922254	0.010000
10.770616	9.922807	0.010000
10.873622	9.924612	0.010000
10.976628	9.925213	0.010000
11.079634	9.927421	0.010000
11.182640	9.926929	0.010000
11.284646	9.927588	0.010000
11.386651	9.926975	0.010000
11.488657	9.927506	0.010000
11.590663	9.928302	0.010000
11.693669	9.930264	0.010000
11.795675	9.930461	0.010000
11.897680	9.930641	0.010000
12.000686	9.931649	0.010000
12.102692	9.931242	0.010000
12.205698	9.932565	0.010000
12.308704	9.932749	0.010000
12.410710	9.932230	0.010000
12.512715	9.932460	0.010000
12.614721	9.934936	0.010000
12.716727	9.934437	0.010000
12.819733	9.936900	0.010000
12.921739	9.934535	0.010000
13.023745	9.937256	0.010000
13.126750	9.939087	0.010000
13.228756	9.936907	0.010000
13.331762	9.939073	0.010000
13.433768	9.938521	0.010000
13.535774	9.939787	0.010000
13.637780	9.940118	0.010000
13.739786	9.939842	0.010000
13.841792	9.941546	0.010000
13.943798	9.944397	0.010000
14.045803	9.940485	0.010000
14.148809	9.944746	0.010000
14.251815	9.943704	0.010000
14.353821	9.944682	0.010000
14.456827	9.944209	0.010000
14.559833	9.946234	0.010000
14.662838	9.947342	0.010000
14.765844	9.945864	0.010000
14.868850	9.947648	0.010000
14.971856	9.947300	0.010000
15.074862	9.947430	0.010000
Sample : Nb
Pre-Pulse  Slope = 5.811534E-3 +/- 2.922456E-4 Intercept = 1.044207E+1 +/- 7.242077E-4 Residue = 7.242861E-9
Heat Pulse  Slope = 3.786340E-2 +/- 5.267673E-4 Intercept = 1.027370E+1 +/- 3.960101E-3 Residue = 1.305171E-8
Post-Pulse  Slope = 5.410211E-3 +/- 4.739457E-4 Intercept = 1.060678E+1 +/- 5.933289E-3 Residue = 1.058414E-8
Sample Voltage = 4.020000E-1 Sample Voltage Uncertainty = 1.000000E-3
Sample Current = 5.020130E+0 Sample Current Uncertainty = 1.000000E-5
t(s)	T(K)	dT(K)
0.000000	10.441665	0.010000
0.110006	10.443120	0.010000
0.212012	10.442923	0.010000
0.314018	10.445736	0.010000
0.416024	10.446010	0.010000
0.518030	10.444677	0.010000
0.620035	10.445979	0.010000
0.722041	10.446208	0.010000
0.824047	10.447520	0.010000
0.926053	10.447337	0.010000
1.028059	10.447942	0.010000
1.130064	10.448980	0.010000
1.232070	10.450378	0.010000
1.334076	10.450307	0.010000
1.436082	10.450293	0.010000
1.538088	10.451543	0.010000
1.640094	10.452457	0.010000
1.742099	10.452809	0.010000
1.844105	10.452107	0.010000
1.946111	10.453272	0.010000
2.048117	10.452886	0.010000
2.151123	10.454189	0.010000
2.253129	10.453730	0.010000
2.355134	10.454735	0.010000
2.457140	10.456120	0.010000
2.560146	10.457523	0.010000
2.662152	10.457627	0.010000
2.764158	10.456884	0.010000
2.866164	10.457962	0.010000
2.968170	10.459040	0.010000
3.070176	10.459563	0.010000
3.172181	10.460838	0.010000
3.274187	10.458851	0.010000
3.376193	10.462989	0.010000
3.478199	10.462583	0.010000
3.580204	10.464293	0.010000
3.683210	10.464873	0.010000
3.785216	10.462909	0.010000
3.888222	10.464844	0.010000
3.990228	10.466541	0.010000
4.093234	10.465511	0.010000
4.195240	10.467460	0.010000
4.298246	10.467340	0.010000
4.401252	10.467808	0.010000
4.504258	10.468044	0.010000
4.606263	10.468609	0.010000
4.708269	10.468967	0.010000
4.810275	10.469827	0.010000
4.912281	10.470083	0.010000
5.015286	10.470421	0.010000
5.117292	10.470617	0.010000
5.220298	10.472551	0.010000
5.322304	10.474263	0.010000
5.424310	10.478778	0.010000
5.526316	10.483962	0.010000
5.628322	10.486849	0.010000
5.730328	10.490252	0.010000
5.832334	10.495453	0.010000
5.934339	10.498623	0.010000
6.036345	10.501923	0.010000
6.138351	10.504742	0.010000
6.241357	10.510987	0.010000
6.343363	10.513247	0.010000
6.446369	10.516752	0.010000
6.548374	10.522626	0.010000
6.650380	10.526526	0.010000
6.752386	10.527946	0.010000
6.854392	10.532564	0.010000
6.956398	10.537823	0.010000
7.058403	10.540053	0.010000
7.161409	10.546220	0.010000
7.263415	10.548839	0.010000
7.366421	10.552353	0.010000
7.468427	10.558087	0.010000
7.570433	10.560417	0.010000
7.672439	10.563695	0.010000
7.774445	10.568095	0.010000
7.876451	10.574520	0.010000
7.979456	10.575552	0.010000
8.082462	10.578913	0.010000
8.185468	10.582647	0.010000
8.288474	10.589307	0.010000
8.390480	10.590637	0.010000
8.492486	10.597170	0.010000
8.595491	10.599688	0.010000
8.698497	10.602844	0.010000
8.800503	10.604685	0.010000
8.902509	10.609476	0.010000
9.004515	10.614174	0.010000
9.107521	10.618398	0.010000
9.209527	10.625130	0.010000
9.312532	10.625657	0.010000
9.415538	10.630584	0.010000
9.518544	10.634092	0.010000
9.620550	10.637738	0.010000
9.722556	10.642130	0.010000
9.824562	10.643682	0.010000
9.926568	10.646645	0.010000
10.029573	10.652112	0.010000
10.132579	10.657872	0.010000
10.234585	10.660111	0.010000
10.336591	10.662084	0.010000
10.438597	10.662004	0.010000
10.540603	10.662375	0.010000
10.643609	10.664234	0.010000
10.746614	10.663096	0.010000
10.849620	10.663635	0.010000
10.952626	10.665394	0.010000
11.055632	10.667014	0.010000
11.158638	10.667058	0.010000
11.260644	10.667607	0.010000
11.362650	10.668769	0.010000
11.464655	10.671465	0.010000
11.566661	10.667612	0.010000
11.669667	10.670160	0.010000
11.772673	10.668130	0.010000
11.875679	10.670799	0.010000
11.977685	10.673014	0.010000
12.079691	10.670901	0.010000
12.181696	10.673125	0.010000
12.284702	10.673192	0.010000
12.386708	10.673355	0.010000
12.488714	10.672373	0.010000
12.590720	10.674931	0.010000
12.693726	10.676323	0.010000
12.796732	10.677731	0.010000
12.899738	10.675998	0.010000
13.001743	10.677181	0.010000
13.104749	10.677582	0.010000
13.206755	10.678711	0.010000
13.308761	10.678505	0.010000
13.411767	10.679948	0.010000
13.513773	10.679222	0.010000
13.616779	10.680465	0.010000
13.719785	10.681658	0.010000
13.821790	10.680651	0.010000
13.923796	10.682599	0.010000
14.026802	10.683933	0.010000
14.128808	10.684198	0.010000
14.230814	10.684775	0.010000
14.332819	10.685356	0.010000
14.435825	10.684012	0.010000
14.537831	10.684820	0.010000
14.639837	10.687378	0.010000
14.741843	10.686271	0.010000
14.843849	10.688069	0.010000
14.945855	10.688419	0.010000
15.048861	10.689456	0.010000
Sample : Nb
Pre-Pulse  Slope = 4.973417E-3 +/- 3.468748E-4 Intercept = 1.096893E+1 +/- 8.431023E-4 Residue = 9.371505E-9
Heat Pulse  Slope = 3.383885E-2 +/- 5.049934E-4 Intercept = 1.081703E+1 +/- 3.807927E-3 Residue = 1.200011E-8
Post-Pulse  Slope = 4.885993E-3 +/- 6.443666E-4 Intercept = 1.111548E+1 +/- 8.075443E-3 Residue = 1.952012E-8
Sample Voltage = 4.020000E-1 Sample Voltage Uncertainty = 1.000000E-3
Sample Current = 5.020120E+0 Sample Current Uncertainty = 1.000000E-5
t(s)	T(K)	dT(K)
0.000000	10.967614	0.010000
0.112006	10.970773	0.010000
0.215012	10.970249	0.010000
0.318018	10.968376	0.010000
0.420024	10.970674	0.010000
0.522030	10.971452	0.010000
0.625036	10.971740	0.010000
0.727041	10.972070	0.010000
0.830047	10.975071	0.010000
0.933053	10.974067	0.010000
1.035059	10.972799	0.010000
1.138065	10.975648	0.010000
1.240071	10.976215	0.010000
1.342077	10.974262	0.010000
1.444082	10.976408	0.010000
1.546088	10.976647	0.010000
1.649094	10.976109	0.010000
1.752100	10.977741	0.010000
1.855106	10.977876	0.010000
1.958112	10.978539	0.010000
2.061118	10.979221	0.010000
2.164124	10.979804	0.010000
2.266129	10.981954	0.010000
2.368135	10.980151	0.010000
2.470141	10.981009	0.010000
2.572147	10.979820	0.010000
2.674153	10.980629	0.010000
2.776158	10.984086	0.010000
2.878164	10.981390	0.010000
2.980170	10.985291	0.010000
3.083176	10.984291	0.010000
3.185182	10.984806	0.010000
3.287188	10.985953	0.010000
3.390193	10.985264	0.010000
3.493199	10.986396	0.010000
3.596205	10.986283	0.010000
3.698211	10.986999	0.010000
3.801217	10.988383	0.010000
3.903223	10.989574	0.010000
4.006229	10.990479	0.010000
4.109235	10.991725	0.010000
4.212241	10.988956	0.010000
4.314247	10.989702	0.010000
4.417253	10.991833	0.010000
4.519258	10.991212	0.010000
4.621264	10.990051	0.010000
4.724270	10.992762	0.010000
4.826276	10.992324	0.010000
4.928282	10.993442	0.010000
5.030287	10.993333	0.010000
5.133293	10.994975	0.010000
5.236299	10.997059	0.010000
5.339305	10.997582	0.010000
5.442311	11.001636	0.010000
5.544317	11.005247	0.010000
5.647323	11.006963	0.010000
5.750329	11.012977	0.010000
5.852334	11.016232	0.010000
5.954340	11.015866	0.010000
6.056346	11.020820	0.010000
6.159352	11.026397	0.010000
6.262358	11.028523	0.010000
6.365364	11.033055	0.010000
6.467370	11.034007	0.010000
6.570375	11.041451	0.010000
6.673381	11.044002	0.010000
6.775387	11.047340	0.010000
6.878393	11.048418	0.010000
6.980399	11.053817	0.010000
7.083405	11.056966	0.010000
7.186411	11.059017	0.010000
7.288417	11.063280	0.010000
7.390422	11.066261	0.010000
7.492428	11.068795	0.010000
7.594434	11.073709	0.010000
7.696440	11.076492	0.010000
7.798446	11.081407	0.010000
7.900452	11.086102	0.010000
8.003458	11.088507	0.010000
8.106463	11.093507	0.010000
8.208469	11.094925	0.010000
8.310475	11.097212	0.010000
8.412481	11.101453	0.010000
8.515487	11.106013	0.010000
8.617493	11.109192	0.010000
8.719499	11.110973	0.010000
8.822505	11.116026	0.010000
8.924510	11.117981	0.010000
9.027516	11.120951	0.010000
9.128522	11.124314	0.010000
9.231528	11.127750	0.010000
9.333534	11.131428	0.010000
9.435539	11.135732	0.010000
9.538545	11.139853	0.010000
9.640551	11.142089	0.010000
9.743557	11.145800	0.010000
9.846563	11.149972	0.010000
9.948569	11.153821	0.010000
10.050575	11.155520	0.010000
10.152580	11.158162	0.010000
10.254586	11.162494	0.010000
10.356592	11.164586	0.010000
10.458598	11.165393	0.010000
10.560604	11.166959	0.010000
10.662610	11.167904	0.010000
10.764616	11.168022	0.010000
10.866621	11.168613	0.010000
10.968627	11.169485	0.010000
11.070633	11.169760	0.010000
11.172639	11.169705	0.010000
11.274645	11.170271	0.010000
11.377651	11.168990	0.010000
11.479656	11.174719	0.010000
11.582662	11.172645	0.010000
11.684668	11.173015	0.010000
11.786674	11.174489	0.010000
11.888680	11.174120	0.010000
11.990685	11.171027	0.010000
12.092691	11.175377	0.010000
12.195697	11.176415	0.010000
12.297703	11.174141	0.010000
12.400709	11.175470	0.010000
12.503715	11.176861	0.010000
12.605721	11.176587	0.010000
12.707726	11.177997	0.010000
12.811733	11.178871	0.010000
12.913738	11.178672	0.010000
13.015744	11.176867	0.010000
13.117750	11.178653	0.010000
13.219756	11.180281	0.010000
13.321762	11.180632	0.010000
13.423768	11.179343	0.010000
13.525774	11.178959	0.010000
13.627779	11.183586	0.010000
13.730785	11.184610	0.010000
13.832791	11.184318	0.010000
13.935797	11.184222	0.010000
14.037803	11.182324	0.010000
14.139809	11.185608	0.010000
14.241814	11.185457	0.010000
14.343820	11.185363	0.010000
14.445826	11.187630	0.010000
14.547832	11.187274	0.010000
14.650838	11.190061	0.010000
14.752843	11.189063	0.010000
14.855849	11.189878	0.010000
14.958855	11.188288	0.010000
15.061861	11.189797	0.010000
Sample : Nb
Pre-Pulse  Slope = 5.466362E-3 +/- 3.456210E-4 Intercept = 1.130168E+1 +/- 8.388441E-4 Residue = 9.299301E-9
Heat Pulse  Slope = 3.226224E-2 +/- 5.432971E-4 Intercept = 1.116373E+1 +/- 4.094039E-3 Residue = 1.390895E-8
Post-Pulse  Slope = 5.284650E-3 +/- 6.634868E-4 Intercept = 1.143346E+1 +/- 8.314578E-3 Residue = 2.071109E-8
Sample Voltage = 4.020000E-1 Sample Voltage Uncertainty = 1.000000E-3
Sample Current = 5.020120E+0 Sample Current Uncertainty = 1.000000E-5
t(s)	T(K)	dT(K)
0.000000	11.301657	0.010000
0.110006	11.303661	0.010000
0.212012	11.304969	0.010000
0.315018	11.305754	0.010000
0.417024	11.304127	0.010000
0.519030	11.305648	0.010000
0.622036	11.304689	0.010000
0.724041	11.306343	0.010000
0.827047	11.306084	0.010000
0.930053	11.306514	0.010000
1.033059	11.308083	0.010000
1.135065	11.308372	0.010000
1.238070	11.308117	0.010000
1.340076	11.309129	0.010000
1.442082	11.307794	0.010000
1.544088	11.310297	0.010000
1.646094	11.311975	0.010000
1.748100	11.309222	0.010000
1.851106	11.312168	0.010000
1.953112	11.311367	0.010000
2.055117	11.312399	0.010000
2.157123	11.313875	0.010000
2.259129	11.314185	0.010000
2.361135	11.315118	0.010000
2.464141	11.316038	0.010000
2.567147	11.314563	0.010000
2.670153	11.316552	0.010000
2.772158	11.317960	0.010000
2.874164	11.316616	0.010000
2.976170	11.317552	0.010000
3.078176	11.318315	0.010000
3.181182	11.316878	0.010000
3.284188	11.319801	0.010000
3.387194	11.320612	0.010000
3.490200	11.321533	0.010000
3.593205	11.319234	0.010000
3.696211	11.323142	0.010000
3.798217	11.323087	0.010000
3.900223	11.324313	0.010000
4.002229	11.322226	0.010000
4.105235	11.324036	0.010000
4.208241	11.325529	0.010000
4.311246	11.324804	0.010000
4.413252	11.324173	0.010000
4.516258	11.323232	0.010000
4.618264	11.326454	0.010000
4.721270	11.326884	0.010000
4.823276	11.326799	0.010000
4.925282	11.325870	0.010000
5.027287	11.328094	0.010000
5.130293	11.329037	0.010000
5.232299	11.333369	0.010000
5.335305	11.337496	0.010000
5.437311	11.338107	0.010000
5.539317	11.344298	0.010000
5.642323	11.346793	0.010000
5.745328	11.349306	0.010000
5.847334	11.353134	0.010000
5.950340	11.354501	0.010000
6.052346	11.358469	0.010000
6.154352	11.362670	0.010000
6.257358	11.366917	0.010000
6.360363	11.368690	0.010000
6.462369	11.371726	0.010000
6.564375	11.377463	0.010000
6.667381	11.379422	0.010000
6.769387	11.383949	0.010000
6.871393	11.385791	0.010000
6.973399	11.384617	0.010000
7.075405	11.391846	0.010000
7.178411	11.394910	0.010000
7.281416	11.397311	0.010000
7.383422	11.402004	0.010000
7.486428	11.405135	0.010000
7.589434	11.408000	0.010000
7.692440	11.411944	0.010000
7.795445	11.415886	0.010000
7.898451	11.418066	0.010000
8.000457	11.421883	0.010000
8.102463	11.424400	0.010000
8.204469	11.427623	0.010000
8.306475	11.433851	0.010000
8.408481	11.434571	0.010000
8.510487	11.437123	0.010000
8.612493	11.442025	0.010000
8.715498	11.446634	0.010000
8.817504	11.448453	0.010000
8.920510	11.451407	0.010000
9.022516	11.452318	0.010000
9.124522	11.457235	0.010000
9.226528	11.461058	0.010000
9.328533	11.462497	0.010000
9.430539	11.464683	0.010000
9.532545	11.470010	0.010000
9.634551	11.474244	0.010000
9.736557	11.475621	0.010000
9.838562	11.479469	0.010000
9.941568	11.485677	0.010000
10.044574	11.485914	0.010000
10.146580	11.485308	0.010000
10.248586	11.486883	0.010000
10.351592	11.489616	0.010000
10.453598	11.487845	0.010000
10.556603	11.486948	0.010000
10.658609	11.490255	0.010000
10.761615	11.490163	0.010000
10.863621	11.490052	0.010000
10.966627	11.493001	0.010000
11.068633	11.492108	0.010000
11.170639	11.492959	0.010000
11.272645	11.492930	0.010000
11.375650	11.494149	0.010000
11.478656	11.495314	0.010000
11.580662	11.494633	0.010000
11.683668	11.496123	0.010000
11.785674	11.495664	0.010000
11.888680	11.496074	0.010000
11.990685	11.496612	0.010000
12.092691	11.496410	0.010000
12.195697	11.497648	0.010000
12.297703	11.497965	0.010000
12.400709	11.497268	0.010000
12.503715	11.497353	0.010000
12.605721	11.502353	0.010000
12.707726	11.499321	0.010000
12.810732	11.500057	0.010000
12.912738	11.505151	0.010000
13.014744	11.499875	0.010000
13.116750	11.503725	0.010000
13.218756	11.502777	0.010000
13.320762	11.501175	0.010000
13.422768	11.504092	0.010000
13.524773	11.506455	0.010000
13.627779	11.507946	0.010000
13.730785	11.507782	0.010000
13.832791	11.506918	0.010000
13.934797	11.505525	0.010000
14.036803	11.507007	0.010000
14.138809	11.507738	0.010000
14.240814	11.510739	0.010000
14.342820	11.509282	0.010000
14.445826	11.509576	0.010000
14.547832	11.510155	0.010000
14.649837	11.510487	0.010000
14.751843	11.509297	0.010000
14.854849	11.510290	0.010000
14.957855	11.512709	0.010000
15.060861	11.514465	0.010000
Sample : Nb
Pre-Pulse  Slope = 4.904793E-3 +/- 6.474834E-4 Intercept = 1.164637E+1 +/- 1.572486E-3 Residue = 3.269066E-8
Heat Pulse  Slope = 2.919517E-2 +/- 1.188333E-3 Intercept = 1.152658E+1 +/- 8.960135E-3 Residue = 6.637836E-8
Post-Pulse  Slope = 4.749678E-3 +/- 6.665062E-4 Intercept = 1.177207E+1 +/- 8.361683E-3 Residue = 2.090325E-8
Sample Voltage = 4.020000E-1 Sample Voltage Uncertainty = 1.000000E-3
Sample Current = 5.020130E+0 Sample Current Uncertainty = 1.000000E-5
t(s)	T(K)	dT(K)
0.000000	11.646254	0.010000
0.111006	11.647057	0.010000
0.214012	11.648717	0.010000
0.317018	11.650167	0.010000
0.419024	11.654401	0.010000
0.521030	11.649544	0.010000
0.623035	11.648753	0.010000
0.726041	11.650218	0.010000
0.828047	11.650090	0.010000
0.931053	11.650571	0.010000
1.033059	11.650596	0.010000
1.135065	11.652976	0.010000
1.237071	11.652909	0.010000
1.339077	11.649860	0.010000
1.441082	11.654093	0.010000
1.543088	11.654743	0.010000
1.646094	11.655887	0.010000
1.748100	11.653057	0.010000
1.851106	11.656116	0.010000
1.953112	11.656175	0.010000
2.056118	11.654874	0.010000
2.159123	11.658444	0.010000
2.261129	11.657720	0.010000
2.363135	11.655377	0.010000
2.465141	11.661538	0.010000
2.568147	11.666295	0.010000
2.671153	11.658536	0.010000
2.774158	11.658271	0.010000
2.877164	11.659797	0.010000
2.979170	11.658855	0.010000
3.082176	11.660673	0.010000
3.185182	11.660855	0.010000
3.287188	11.661527	0.010000
3.390194	11.663466	0.010000
3.492200	11.664953	0.010000
3.595206	11.664767	0.010000
3.698212	11.663478	0.010000
3.800217	11.664234	0.010000
3.902223	11.666156	0.010000
4.004229	11.664717	0.010000
4.107235	11.666137	0.010000
4.210241	11.665727	0.010000
4.313247	11.669170	0.010000
4.415253	11.667230	0.010000
4.517258	11.668339	0.010000
4.620264	11.671029	0.010000
4.723270	11.675901	0.010000
4.826276	11.669140	0.010000
4.929282	11.671481	0.010000
5.032288	11.670293	0.010000
5.135293	11.675267	0.010000
5.237299	11.676854	0.010000
5.340305	11.679845	0.010000
5.442311	11.682688	0.010000
5.545317	11.685429	0.010000
5.648323	11.688766	0.010000
5.750329	11.690220	0.010000
5.853335	11.696438	0.010000
5.956341	11.699507	0.010000
6.059347	11.702024	0.010000
6.161352	11.705016	0.010000
6.263358	11.707398	0.010000
6.366364	11.712421	0.010000
6.469370	11.714710	0.010000
6.571376	11.716236	0.010000
6.673382	11.718917	0.010000
6.775387	11.728309	0.010000
6.877393	11.739002	0.010000
6.979399	11.730313	0.010000
7.082405	11.732784	0.010000
7.184411	11.734279	0.010000
7.286417	11.740511	0.010000
7.388422	11.743177	0.010000
7.490428	11.744723	0.010000
7.592434	11.748492	0.010000
7.694440	11.750291	0.010000
7.796446	11.755150	0.010000
7.898452	11.755539	0.010000
8.001458	11.760232	0.010000
8.104464	11.763193	0.010000
8.207469	11.765081	0.010000
8.309475	11.768382	0.010000
8.412481	11.771256	0.010000
8.515487	11.775080	0.010000
8.617493	11.776394	0.010000
8.720499	11.781382	0.010000
8.823504	11.784018	0.010000
8.925510	11.789211	0.010000
9.028516	11.798459	0.010000
9.131522	11.796525	0.010000
9.234528	11.796749	0.010000
9.336534	11.796891	0.010000
9.439540	11.800535	0.010000
9.541546	11.804681	0.010000
9.644552	11.808672	0.010000
9.747558	11.812211	0.010000
9.849563	11.814580	0.010000
9.952569	11.819883	0.010000
10.055575	11.819983	0.010000
10.158581	11.818629	0.010000
10.260587	11.818990	0.010000
10.363593	11.821278	0.010000
10.466599	11.819063	0.010000
10.568604	11.820919	0.010000
10.671610	11.821853	0.010000
10.774616	11.820354	0.010000
10.877622	11.824893	0.010000
10.980628	11.824408	0.010000
11.082634	11.823898	0.010000
11.184640	11.826554	0.010000
11.287646	11.824920	0.010000
11.389651	11.823742	0.010000
11.492657	11.823912	0.010000
11.595663	11.829907	0.010000
11.697669	11.827993	0.010000
11.799675	11.827211	0.010000
11.902681	11.830309	0.010000
12.004687	11.828283	0.010000
12.106692	11.829030	0.010000
12.209698	11.830136	0.010000
12.312704	11.832670	0.010000
12.414710	11.830687	0.010000
12.516716	11.831766	0.010000
12.618721	11.833572	0.010000
12.720727	11.831684	0.010000
12.822733	11.834161	0.010000
12.924739	11.835158	0.010000
13.026745	11.835551	0.010000
13.129751	11.835507	0.010000
13.231757	11.832839	0.010000
13.333763	11.836576	0.010000
13.436769	11.834148	0.010000
13.539774	11.834498	0.010000
13.642780	11.837316	0.010000
13.745786	11.836479	0.010000
13.848792	11.836443	0.010000
13.950798	11.839141	0.010000
14.052804	11.840835	0.010000
14.154809	11.841174	0.010000
14.257815	11.839643	0.010000
14.360821	11.841121	0.010000
14.463827	11.841317	0.010000
14.565833	11.841281	0.010000
14.667839	11.841106	0.010000
14.770845	11.844031	0.010000
14.872850	11.842955	0.010000
14.974856	11.842937	0.010000
15.076862	11.844000	0.010000
Sample : Nb
Pre-Pulse  Slope = 5.367823E-3 +/- 5.394787E-4 Intercept = 1.206740E+1 +/- 1.340047E-3 Residue = 2.476341E-8
Heat Pulse  Slope = 3.153736E-2 +/- 4.734733E-4 Intercept = 1.191145E+1 +/- 3.563581E-3 Residue = 1.054884E-8
Post-Pulse  Slope = 4.453642E-3 +/- 1.545230E-3 Intercept = 1.221086E+1 +/- 1.935369E-2 Residue = 1.122271E-7
Sample Voltage = 4.020000E-1 Sample Voltage Uncertainty = 1.000000E-3
Sample Current = 5.012011E+0 Sample Current Uncertainty = 1.000000E-5
t(s)	T(K)	dT(K)
0.000000	12.067675	0.010000
0.112006	12.068041	0.010000
0.214012	12.067211	0.010000
0.317018	12.070216	0.010000
0.419024	12.068142	0.010000
0.521029	12.068957	0.010000
0.623035	12.071814	0.010000
0.725041	12.069740	0.010000
0.827047	12.071984	0.010000
0.929053	12.074426	0.010000
1.032059	12.073183	0.010000
1.134065	12.073105	0.010000
1.237071	12.073622	0.010000
1.339077	12.074138	0.010000
1.441082	12.074586	0.010000
1.543088	12.074326	0.010000
1.645094	12.076677	0.010000
1.747100	12.077175	0.010000
1.849105	12.077202	0.010000
1.951111	12.079611	0.010000
2.054117	12.075403	0.010000
2.156123	12.079275	0.010000
2.258129	12.081628	0.010000
2.360135	12.080096	0.010000
2.462141	12.079457	0.010000
2.565146	12.079446	0.010000
2.668152	12.083490	0.010000
2.770158	12.081730	0.010000
2.872164	12.081223	0.010000
2.974170	12.088508	0.010000
3.076176	12.085281	0.010000
3.178182	12.084965	0.010000
3.281188	12.086013	0.010000
3.384193	12.084940	0.010000
3.487199	12.087461	0.010000
3.590205	12.088060	0.010000
3.692211	12.085204	0.010000
3.794217	12.084830	0.010000
3.896223	12.087830	0.010000
3.999228	12.088016	0.010000
4.101234	12.086868	0.010000
4.203240	12.091605	0.010000
4.305246	12.090978	0.010000
4.407252	12.091176	0.010000
4.510258	12.092763	0.010000
4.612264	12.091701	0.010000
4.714270	12.094000	0.010000
4.815275	12.092339	0.010000
4.918281	12.094059	0.010000
5.020287	12.093172	0.010000
5.123293	12.094751	0.010000
5.225299	12.096519	0.010000
5.327304	12.095312	0.010000
5.429310	12.093506	0.010000
5.531316	12.096058	0.010000
5.634322	12.098787	0.010000
5.737328	12.095699	0.010000
5.840334	12.097031	0.010000
5.942340	12.099837	0.010000
6.045346	12.104022	0.010000
6.147351	12.106238	0.010000
6.249357	12.106493	0.010000
6.351363	12.111792	0.010000
6.453369	12.114068	0.010000
6.555375	12.118851	0.010000
6.658381	12.121046	0.010000
6.760386	12.125148	0.010000
6.862392	12.127536	0.010000
6.965398	12.129966	0.010000
7.068404	12.136659	0.010000
7.170410	12.138124	0.010000
7.273416	12.139937	0.010000
7.375422	12.142050	0.010000
7.477427	12.147509	0.010000
7.580433	12.150119	0.010000
7.682439	12.153167	0.010000
7.784445	12.158017	0.010000
7.886451	12.160067	0.010000
7.989457	12.161899	0.010000
8.091463	12.166534	0.010000
8.193469	12.170691	0.010000
8.296474	12.173265	0.010000
8.398480	12.177409	0.010000
8.501486	12.180146	0.010000
8.603492	12.182271	0.010000
8.706498	12.187138	0.010000
8.809504	12.188456	0.010000
8.911510	12.192361	0.010000
9.013515	12.198982	0.010000
9.115521	12.199286	0.010000
9.218527	12.204214	0.010000
9.321533	12.208032	0.010000
9.423539	12.207752	0.010000
9.525545	12.213418	0.010000
9.628551	12.218044	0.010000
9.731556	12.221807	0.010000
9.835562	12.221369	0.010000
9.938568	12.225589	0.010000
10.040574	12.243995	0.010000
10.142580	12.232062	0.010000
10.244586	12.255840	0.010000
10.346591	12.278662	0.010000
10.448597	12.271845	0.010000
10.550603	12.244591	0.010000
10.653609	12.247579	0.010000
10.755615	12.253565	0.010000
10.858621	12.254487	0.010000
10.961627	12.256521	0.010000
11.063632	12.259776	0.010000
11.165638	12.258908	0.010000
11.267644	12.260496	0.010000
11.370650	12.260723	0.010000
11.472656	12.260434	0.010000
11.574662	12.257782	0.010000
11.676668	12.264075	0.010000
11.778674	12.274697	0.010000
11.880680	12.261920	0.010000
11.983685	12.262906	0.010000
12.086691	12.260869	0.010000
12.188697	12.264113	0.010000
12.290703	12.264536	0.010000
12.392709	12.266489	0.010000
12.494714	12.276802	0.010000
12.597720	12.267146	0.010000
12.699726	12.268518	0.010000
12.801732	12.268721	0.010000
12.904738	12.267160	0.010000
13.007744	12.265854	0.010000
13.109750	12.271517	0.010000
13.211756	12.269643	0.010000
13.314761	12.269243	0.010000
13.416767	12.267011	0.010000
13.518773	12.273047	0.010000
13.620779	12.270610	0.010000
13.723785	12.270807	0.010000
13.825791	12.271415	0.010000
13.927796	12.273714	0.010000
14.029802	12.272337	0.010000
14.131808	12.273254	0.010000
14.234814	12.277468	0.010000
14.337820	12.273707	0.010000
14.439826	12.277112	0.010000
14.541831	12.274694	0.010000
14.644837	12.275841	0.010000
14.747843	12.276510	0.010000
14.849849	12.277213	0.010000
14.952855	12.279390	0.010000
15.054861	12.280041	0.010000
Sample : Nb
Pre-Pulse  Slope = 5.647062E-3 +/- 4.622100E-4 Intercept = 1.240343E+1 +/- 1.122938E-3 Residue = 1.668687E-8
Heat Pulse  Slope = 3.059101E-2 +/- 6.551990E-4 Intercept = 1.227006E+1 +/- 4.939755E-3 Residue = 2.020235E-8
Post-Pulse  Slope = 5.081348E-3 +/- 5.354487E-4 Intercept = 1.252973E+1 +/- 6.713908E-3 Residue = 1.346365E-8
Sample Voltage = 4.040000E-1 Sample Voltage Uncertainty = 1.000000E-3
Sample Current = 5.020130E+0 Sample Current Uncertainty = 1.000000E-5
t(s)	T(K)	dT(K)
0.000000	12.406456	0.010000
0.111006	12.407029	0.010000
0.213012	12.402740	0.010000
0.315018	12.405459	0.010000
0.417024	12.408604	0.010000
0.520030	12.406078	0.010000
0.622036	12.407512	0.010000
0.725041	12.409093	0.010000
0.827047	12.409624	0.010000
0.929053	12.406793	0.010000
1.031059	12.410429	0.010000
1.133065	12.407261	0.010000
1.236071	12.411701	0.010000
1.339077	12.412080	0.010000
1.442082	12.410717	0.010000
1.544088	12.410596	0.010000
1.647094	12.415461	0.010000
1.750100	12.413591	0.010000
1.853106	12.413064	0.010000
1.955112	12.413662	0.010000
2.057117	12.414444	0.010000
2.160123	12.415350	0.010000
2.262129	12.414671	0.010000
2.364135	12.414524	0.010000
2.466141	12.415803	0.010000
2.569147	12.418759	0.010000
2.672153	12.420079	0.010000
2.775158	12.420337	0.010000
2.877164	12.421314	0.010000
2.980170	12.419045	0.010000
3.083176	12.420231	0.010000
3.186182	12.420637	0.010000
3.289188	12.422756	0.010000
3.392194	12.424072	0.010000
3.494200	12.423444	0.010000
3.597206	12.422873	0.010000
3.699212	12.423683	0.010000
3.801217	12.425167	0.010000
3.903223	12.426464	0.010000
4.006229	12.423253	0.010000
4.108235	12.425925	0.010000
4.211241	12.424313	0.010000
4.314247	12.423978	0.010000
4.416253	12.427348	0.010000
4.519258	12.428414	0.010000
4.622264	12.427960	0.010000
4.725270	12.429895	0.010000
4.827276	12.427355	0.010000
4.930282	12.431440	0.010000
5.033288	12.430743	0.010000
5.137294	12.430361	0.010000
5.239300	12.429806	0.010000
5.342306	12.434651	0.010000
5.445312	12.435232	0.010000
5.547317	12.440594	0.010000
5.649323	12.443668	0.010000
5.751329	12.446502	0.010000
5.853335	12.448459	0.010000
5.955340	12.452154	0.010000
6.057346	12.457915	0.010000
6.159352	12.457426	0.010000
6.261358	12.461444	0.010000
6.364364	12.465271	0.010000
6.466370	12.468447	0.010000
6.568376	12.469403	0.010000
6.671381	12.474902	0.010000
6.773387	12.476829	0.010000
6.875393	12.480165	0.010000
6.978399	12.481013	0.010000
7.081405	12.486463	0.010000
7.184411	12.489852	0.010000
7.286417	12.494732	0.010000
7.389422	12.496595	0.010000
7.491428	12.500338	0.010000
7.593434	12.502937	0.010000
7.695440	12.504452	0.010000
7.797446	12.508588	0.010000
7.899452	12.508187	0.010000
8.002458	12.516063	0.010000
8.104464	12.518832	0.010000
8.206470	12.519547	0.010000
8.309475	12.524253	0.010000
8.411481	12.529482	0.010000
8.514487	12.528724	0.010000
8.616493	12.532090	0.010000
8.718499	12.538125	0.010000
8.821505	12.539348	0.010000
8.924510	12.545369	0.010000
9.026516	12.546466	0.010000
9.128522	12.547563	0.010000
9.231528	12.550039	0.010000
9.334534	12.555598	0.010000
9.437540	12.557115	0.010000
9.539546	12.562061	0.010000
9.642551	12.561176	0.010000
9.745557	12.567778	0.010000
9.848563	12.572041	0.010000
9.951569	12.571321	0.010000
10.054575	12.575806	0.010000
10.157581	12.578032	0.010000
10.259587	12.580490	0.010000
10.361593	12.584119	0.010000
10.464599	12.583466	0.010000
10.566604	12.585371	0.010000
10.668610	12.584663	0.010000
10.771616	12.583679	0.010000
10.873622	12.586609	0.010000
10.975628	12.584881	0.010000
11.078634	12.587264	0.010000
11.180639	12.584232	0.010000
11.282645	12.585993	0.010000
11.384651	12.588419	0.010000
11.486657	12.588327	0.010000
11.588663	12.588939	0.010000
11.690669	12.590357	0.010000
11.793674	12.589712	0.010000
11.896680	12.590263	0.010000
11.998686	12.590166	0.010000
12.100692	12.590017	0.010000
12.202698	12.590855	0.010000
12.304704	12.591447	0.010000
12.406710	12.592496	0.010000
12.508716	12.596612	0.010000
12.610721	12.593462	0.010000
12.713727	12.594856	0.010000
12.816733	12.596512	0.010000
12.918739	12.595341	0.010000
13.020745	12.596436	0.010000
13.122750	12.596143	0.010000
13.225757	12.595188	0.010000
13.327762	12.596419	0.010000
13.430768	12.598414	0.010000
13.532774	12.599982	0.010000
13.634780	12.598765	0.010000
13.736785	12.600248	0.010000
13.839791	12.598111	0.010000
13.941797	12.600723	0.010000
14.043803	12.603607	0.010000
14.145809	12.601027	0.010000
14.247815	12.600578	0.010000
14.350821	12.602979	0.010000
14.453826	12.604598	0.010000
14.555832	12.603758	0.010000
14.658838	12.602513	0.010000
14.761844	12.604701	0.010000
14.864850	12.607454	0.010000
14.966856	12.605743	0.010000
15.068862	12.606845	0.010000
Sample : Nb
Pre-Pulse  Slope = 4.256522E-3 +/- 8.615631E-4 Intercept = 1.271138E+1 +/- 2.092637E-3 Residue = 5.792750E-8
Heat Pulse  Slope = 2.857521E-2 +/- 7.321459E-4 Intercept = 1.258433E+1 +/- 5.512089E-3 Residue = 2.519652E-8
Post-Pulse  Slope = 4.821447E-3 +/- 6.834216E-4 Intercept = 1.283065E+1 +/- 8.558298E-3 Residue = 2.196946E-8
Sample Voltage = 4.040000E-1 Sample Voltage Uncertainty = 1.000000E-3
Sample Current = 5.020140E+0 Sample Current Uncertainty = 1.000000E-5
t(s)	T(K)	dT(K)
0.000000	12.706925	0.010000
0.110006	12.710438	0.010000
0.212012	12.710980	0.010000
0.314018	12.709614	0.010000
0.416024	12.711001	0.010000
0.519030	12.711105	0.010000
0.621036	12.714019	0.010000
0.724041	12.711530	0.010000
0.827047	12.712939	0.010000
0.930053	12.719948	0.010000
1.032059	12.725083	0.010000
1.134065	12.716259	0.010000
1.236071	12.715511	0.010000
1.339077	12.716679	0.010000
1.441082	12.717281	0.010000
1.544088	12.716031	0.010000
1.647094	12.715975	0.010000
1.749100	12.717159	0.010000
1.852106	12.718829	0.010000
1.955112	12.718468	0.010000
2.058118	12.721055	0.010000
2.160123	12.718637	0.010000
2.263129	12.719621	0.010000
2.365135	12.721087	0.010000
2.467141	12.720294	0.010000
2.569147	12.724191	0.010000
2.672153	12.724366	0.010000
2.774158	12.724508	0.010000
2.876164	12.724456	0.010000
2.978170	12.726869	0.010000
3.081176	12.724837	0.010000
3.184182	12.726969	0.010000
3.287188	12.725246	0.010000
3.390194	12.728101	0.010000
3.493200	12.725493	0.010000
3.596206	12.724395	0.010000
3.698212	12.728704	0.010000
3.800217	12.724466	0.010000
3.902223	12.726630	0.010000
4.004229	12.726769	0.010000
4.106235	12.729331	0.010000
4.208241	12.730085	0.010000
4.310246	12.729259	0.010000
4.413252	12.731264	0.010000
4.515258	12.731804	0.010000
4.618264	12.732632	0.010000
4.720270	12.732692	0.010000
4.822276	12.732393	0.010000
4.925282	12.734996	0.010000
5.027287	12.734748	0.010000
5.128293	12.732245	0.010000
5.230299	12.735411	0.010000
5.333305	12.734676	0.010000
5.435311	12.740419	0.010000
5.537317	12.742626	0.010000
5.639323	12.745284	0.010000
5.741328	12.749614	0.010000
5.843334	12.752483	0.010000
5.945340	12.756360	0.010000
6.047346	12.758213	0.010000
6.149352	12.758921	0.010000
6.251358	12.763289	0.010000
6.353364	12.766230	0.010000
6.456369	12.768642	0.010000
6.558375	12.770922	0.010000
6.660381	12.776018	0.010000
6.763387	12.779390	0.010000
6.866393	12.779588	0.010000
6.969398	12.782748	0.010000
7.071404	12.784465	0.010000
7.173410	12.789686	0.010000
7.275416	12.790670	0.010000
7.378422	12.797151	0.010000
7.480428	12.796927	0.010000
7.582434	12.801236	0.010000
7.684440	12.803480	0.010000
7.786445	12.809746	0.010000
7.889451	12.812782	0.010000
7.991457	12.812884	0.010000
8.094463	12.812207	0.010000
8.196469	12.816709	0.010000
8.298475	12.819762	0.010000
8.400480	12.825836	0.010000
8.502486	12.825271	0.010000
8.604492	12.831106	0.010000
8.707498	12.831715	0.010000
8.809504	12.836968	0.010000
8.912510	12.841433	0.010000
9.015516	12.841337	0.010000
9.118522	12.845545	0.010000
9.220527	12.850000	0.010000
9.323533	12.850844	0.010000
9.425539	12.854035	0.010000
9.528545	12.857325	0.010000
9.630551	12.860857	0.010000
9.732557	12.865652	0.010000
9.834562	12.867425	0.010000
9.937568	12.867871	0.010000
10.039574	12.872878	0.010000
10.141580	12.872604	0.010000
10.244586	12.877561	0.010000
10.346592	12.878246	0.010000
10.448597	12.878166	0.010000
10.550603	12.880003	0.010000
10.652609	12.880833	0.010000
10.754615	12.881730	0.010000
10.856621	12.882791	0.010000
10.958627	12.883561	0.010000
11.060633	12.883135	0.010000
11.162639	12.886551	0.010000
11.265645	12.888063	0.010000
11.367650	12.884318	0.010000
11.470656	12.882606	0.010000
11.572662	12.885652	0.010000
11.674668	12.887096	0.010000
11.776673	12.887370	0.010000
11.878679	12.890088	0.010000
11.980685	12.889963	0.010000
12.082691	12.888250	0.010000
12.185697	12.889494	0.010000
12.288703	12.889191	0.010000
12.390708	12.888682	0.010000
12.492714	12.889757	0.010000
12.595720	12.889442	0.010000
12.697726	12.893404	0.010000
12.800732	12.890456	0.010000
12.903738	12.895606	0.010000
13.005744	12.891864	0.010000
13.107749	12.894643	0.010000
13.210755	12.894724	0.010000
13.312761	12.895538	0.010000
13.414767	12.894609	0.010000
13.516773	12.896415	0.010000
13.619779	12.897179	0.010000
13.721785	12.897004	0.010000
13.823791	12.897784	0.010000
13.925797	12.896781	0.010000
14.028802	12.897687	0.010000
14.130808	12.898807	0.010000
14.232814	12.900086	0.010000
14.334820	12.899523	0.010000
14.437826	12.899744	0.010000
14.539832	12.901517	0.010000
14.641838	12.901310	0.010000
14.744843	12.899103	0.010000
14.847849	12.902448	0.010000
14.950855	12.902946	0.010000
15.052861	12.903061	0.010000
Sample : Nb
Pre-Pulse  Slope = 4.608741E-3 +/- 4.893563E-4 Intercept = 1.304408E+1 +/- 1.188196E-3 Residue = 1.865170E-8
Heat Pulse  Slope = 2.920212E-2 +/- 1.339201E-3 Intercept = 1.290883E+1 +/- 1.007972E-2 Residue = 8.432448E-8
Post-Pulse  Slope = 1.311198E-2 +/- 5.012095E-3 Intercept = 1.306209E+1 +/- 6.276827E-2 Residue = 1.180924E-6
Sample Voltage = 4.040000E-1 Sample Voltage Uncertainty = 1.000000E-3
Sample Current = 5.020120E+0 Sample Current Uncertainty = 1.000000E-5
t(s)	T(K)	dT(K)
0.000000	13.044040	0.010000
0.110006	13.042937	0.010000
0.213012	13.043790	0.010000
0.315018	13.045440	0.010000
0.417024	13.045660	0.010000
0.519030	13.047715	0.010000
0.622036	13.048021	0.010000
0.724041	13.044981	0.010000
0.826047	13.046934	0.010000
0.928053	13.049874	0.010000
1.031059	13.050198	0.010000
1.134065	13.051807	0.010000
1.236071	13.050331	0.010000
1.339077	13.047195	0.010000
1.442083	13.051048	0.010000
1.545089	13.050706	0.010000
1.648095	13.051452	0.010000
1.751101	13.050263	0.010000
1.854106	13.052602	0.010000
1.956112	13.051066	0.010000
2.058118	13.054996	0.010000
2.161124	13.052752	0.010000
2.263130	13.055851	0.010000
2.366136	13.055489	0.010000
2.468142	13.056040	0.010000
2.570147	13.057374	0.010000
2.672153	13.053600	0.010000
2.774159	13.057114	0.010000
2.876165	13.058112	0.010000
2.978170	13.057504	0.010000
3.080176	13.058170	0.010000
3.183182	13.057943	0.010000
3.286188	13.058873	0.010000
3.388194	13.059331	0.010000
3.490200	13.061114	0.010000
3.592206	13.060065	0.010000
3.694211	13.061844	0.010000
3.796217	13.060356	0.010000
3.898223	13.064232	0.010000
4.000229	13.062481	0.010000
4.102235	13.063922	0.010000
4.204241	13.064056	0.010000
4.306246	13.064147	0.010000
4.408252	13.065294	0.010000
4.511258	13.063664	0.010000
4.614264	13.064561	0.010000
4.716270	13.066218	0.010000
4.818276	13.067497	0.010000
4.921282	13.068257	0.010000
5.024288	13.066440	0.010000
5.128294	13.065894	0.010000
5.230299	13.066173	0.010000
5.332305	13.068471	0.010000
5.434311	13.068051	0.010000
5.536317	13.070669	0.010000
5.638323	13.074804	0.010000
5.740329	13.078991	0.010000
5.842334	13.080064	0.010000
5.944340	13.083355	0.010000
6.046346	13.084839	0.010000
6.148352	13.091855	0.010000
6.250358	13.092906	0.010000
6.352364	13.094880	0.010000
6.454370	13.099531	0.010000
6.556375	13.100925	0.010000
6.658381	13.101462	0.010000
6.761387	13.104405	0.010000
6.863393	13.111424	0.010000
6.966399	13.112627	0.010000
7.068405	13.113421	0.010000
7.170410	13.117809	0.010000
7.272416	13.121522	0.010000
7.374422	13.124577	0.010000
7.477428	13.127692	0.010000
7.580434	13.127680	0.010000
7.682440	13.128854	0.010000
7.784445	13.134216	0.010000
7.886451	13.137374	0.010000
7.988457	13.143303	0.010000
8.091463	13.143668	0.010000
8.194469	13.146132	0.010000
8.296475	13.150598	0.010000
8.398480	13.153060	0.010000
8.501486	13.158554	0.010000
8.604492	13.159443	0.010000
8.706498	13.160152	0.010000
8.808504	13.164343	0.010000
8.911510	13.181466	0.010000
9.014516	13.169834	0.010000
9.116522	13.188747	0.010000
9.218527	13.192108	0.010000
9.321533	13.220673	0.010000
9.424539	13.179254	0.010000
9.526545	13.183386	0.010000
9.628551	13.182478	0.010000
9.731557	13.189566	0.010000
9.833563	13.191063	0.010000
9.936569	13.195453	0.010000
10.038574	13.196276	0.010000
10.140580	13.199821	0.010000
10.242586	13.202729	0.010000
10.345592	13.208157	0.010000
10.447598	13.207484	0.010000
10.549603	13.209209	0.010000
10.652609	13.208815	0.010000
10.754615	13.226562	0.010000
10.856621	13.209261	0.010000
10.959627	13.208240	0.010000
11.062633	13.209818	0.010000
11.164639	13.213289	0.010000
11.266644	13.211925	0.010000
11.368650	13.226126	0.010000
11.470656	13.216892	0.010000
11.573662	13.214853	0.010000
11.675668	13.215667	0.010000
11.777674	13.214791	0.010000
11.880680	13.215183	0.010000
11.982686	13.214567	0.010000
12.084692	13.218291	0.010000
12.186697	13.214308	0.010000
12.288703	13.218497	0.010000
12.390709	13.217956	0.010000
12.493715	13.219237	0.010000
12.595721	13.228223	0.010000
12.697726	13.222596	0.010000
12.799732	13.235728	0.010000
12.901738	13.220112	0.010000
13.004744	13.223527	0.010000
13.106750	13.223248	0.010000
13.209756	13.233148	0.010000
13.312762	13.236393	0.010000
13.414767	13.235110	0.010000
13.517773	13.237573	0.010000
13.620780	13.269032	0.010000
13.722785	13.279250	0.010000
13.825791	13.239581	0.010000
13.928797	13.226579	0.010000
14.030803	13.224237	0.010000
14.133809	13.227023	0.010000
14.235815	13.225352	0.010000
14.337820	13.229089	0.010000
14.439826	13.227450	0.010000
14.541832	13.230033	0.010000
14.644838	13.230761	0.010000
14.747844	13.231136	0.010000
14.850850	13.229230	0.010000
14.952856	13.231302	0.010000
15.054861	13.255468	0.010000
Sample : Nb
Pre-Pulse  Slope = 4.276217E-3 +/- 9.470124E-4 Intercept = 1.340958E+1 +/- 2.299973E-3 Residue = 6.992207E-8
Heat Pulse  Slope = 8.986493E-2 +/- 4.335952E-3 Intercept = 1.296760E+1 +/- 3.267937E-2 Residue = 8.844858E-7
Post-Pulse  Slope = 4.112747E-2 +/- 8.588938E-3 Intercept = 1.339747E+1 +/- 1.077209E-1 Residue = 3.485883E-6
Sample Voltage = 8.060000E-1 Sample Voltage Uncertainty = 1.000000E-3
Sample Current = 9.870820E+0 Sample Current Uncertainty = 1.000000E-5
t(s)	T(K)	dT(K)
0.000000	13.404731	0.010000
0.111006	13.406612	0.010000
0.214012	13.409894	0.010000
0.316018	13.410794	0.010000
0.418024	13.410860	0.010000
0.521030	13.409579	0.010000
0.623035	13.415287	0.010000
0.725041	13.421604	0.010000
0.828047	13.411300	0.010000
0.930053	13.410238	0.010000
1.032059	13.409660	0.010000
1.134065	13.411323	0.010000
1.236071	13.414425	0.010000
1.339077	13.415610	0.010000
1.441082	13.416756	0.010000
1.543088	13.418806	0.010000
1.646094	13.414657	0.010000
1.749100	13.416632	0.010000
1.852106	13.414940	0.010000
1.954112	13.418475	0.010000
2.056118	13.416337	0.010000
2.159123	13.419584	0.010000
2.262129	13.420262	0.010000
2.365135	13.421755	0.010000
2.467141	13.420750	0.010000
2.570147	13.419323	0.010000
2.673153	13.419584	0.010000
2.776159	13.425831	0.010000
2.878165	13.425777	0.010000
2.980170	13.424307	0.010000
3.083176	13.421951	0.010000
3.185182	13.419418	0.010000
3.287188	13.424605	0.010000
3.389194	13.425066	0.010000
3.491199	13.421994	0.010000
3.594205	13.423063	0.010000
3.696211	13.424344	0.010000
3.798217	13.427191	0.010000
3.900223	13.426543	0.010000
4.002229	13.424624	0.010000
4.105235	13.428053	0.010000
4.208241	13.427248	0.010000
4.311246	13.428561	0.010000
4.413252	13.429844	0.010000
4.516258	13.428916	0.010000
4.618264	13.428804	0.010000
4.721270	13.430239	0.010000
4.824276	13.428414	0.010000
4.927282	13.437410	0.010000
5.029288	13.437813	0.010000
5.132294	13.431578	0.010000
5.234299	13.443320	0.010000
5.336305	13.451628	0.010000
5.438311	13.456937	0.010000
5.541317	13.467488	0.010000
5.644323	13.477114	0.010000
5.747329	13.487108	0.010000
5.850335	13.496203	0.010000
5.952341	13.505056	0.010000
6.055346	13.512854	0.010000
6.158352	13.522641	0.010000
6.260358	13.533739	0.010000
6.362364	13.539330	0.010000
6.464370	13.548869	0.010000
6.566376	13.555708	0.010000
6.668381	13.567765	0.010000
6.770387	13.572621	0.010000
6.873393	13.584168	0.010000
6.975399	13.593738	0.010000
7.078405	13.600241	0.010000
7.181411	13.611489	0.010000
7.284417	13.620540	0.010000
7.386423	13.627107	0.010000
7.488428	13.636849	0.010000
7.590434	13.644049	0.010000
7.692440	13.656469	0.010000
7.794446	13.675444	0.010000
7.896451	13.703713	0.010000
7.998457	13.684717	0.010000
8.101463	13.692782	0.010000
8.204469	13.699026	0.010000
8.306475	13.710421	0.010000
8.408481	13.717698	0.010000
8.510487	13.729011	0.010000
8.613492	13.778637	0.010000
8.717499	13.742721	0.010000
8.820505	13.752421	0.010000
8.923511	13.760115	0.010000
9.026516	13.765901	0.010000
9.128522	13.775887	0.010000
9.230528	13.786313	0.010000
9.332534	13.794625	0.010000
9.435540	13.801959	0.010000
9.537546	13.811744	0.010000
9.640552	13.820420	0.010000
9.743557	13.831800	0.010000
9.845563	13.849713	0.010000
9.947569	13.924456	0.010000
10.049575	13.921135	0.010000
10.152581	13.862809	0.010000
10.255587	13.880046	0.010000
10.357593	13.884428	0.010000
10.459598	13.886637	0.010000
10.562604	13.867937	0.010000
10.665610	13.867195	0.010000
10.767616	13.867929	0.010000
10.870622	13.868657	0.010000
10.973628	13.902000	0.010000
11.075634	13.872704	0.010000
11.177639	13.873337	0.010000
11.280645	13.873420	0.010000
11.383651	13.869172	0.010000
11.486657	13.868750	0.010000
11.589663	13.871946	0.010000
11.691669	13.869411	0.010000
11.793674	13.870899	0.010000
11.896680	13.874225	0.010000
11.999686	13.873917	0.010000
12.102692	13.874005	0.010000
12.204698	13.874399	0.010000
12.306704	13.875735	0.010000
12.409710	13.872737	0.010000
12.512716	13.912636	0.010000
12.615722	13.928664	0.010000
12.718728	13.957133	0.010000
12.820733	13.945886	0.010000
12.923739	13.961274	0.010000
13.025745	13.950481	0.010000
13.128751	13.964941	0.010000
13.230757	13.959286	0.010000
13.332763	13.944183	0.010000
13.435769	13.939904	0.010000
13.538774	13.926815	0.010000
13.640780	13.967155	0.010000
13.742786	13.947580	0.010000
13.844792	13.963083	0.010000
13.947798	13.966384	0.010000
14.050804	13.962829	0.010000
14.153810	13.957287	0.010000
14.256815	13.956105	0.010000
14.359821	13.972554	0.010000
14.461827	13.950691	0.010000
14.564833	13.958059	0.010000
14.666839	13.956720	0.010000
14.768845	13.959561	0.010000
14.870851	13.949565	0.010000
14.972857	13.956840	0.010000
15.074862	13.958555	0.010000
Sample : Nb
Pre-Pulse  Slope = 6.670229E-3 +/- 9.540412E-4 Intercept = 1.401514E+1 +/- 2.318917E-3 Residue = 7.111308E-8
Heat Pulse  Slope = 7.797143E-2 +/- 1.210945E-3 Intercept = 1.362941E+1 +/- 9.127039E-3 Residue = 6.910111E-8
Post-Pulse  Slope = 4.074839E-3 +/- 7.665848E-4 Intercept = 1.438975E+1 +/- 9.623840E-3 Residue = 2.764821E-8
Sample Voltage = 8.060000E-1 Sample Voltage Uncertainty = 1.000000E-3
Sample Current = 9.872020E+0 Sample Current Uncertainty = 1.000000E-5
t(s)	T(K)	dT(K)
0.000000	14.020419	0.010000
0.110006	14.019059	0.010000
0.212012	14.021907	0.010000
0.315018	14.019152	0.010000
0.418024	14.017434	0.010000
0.520030	14.021162	0.010000
0.623036	14.022504	0.010000
0.725041	14.021814	0.010000
0.828047	14.023448	0.010000
0.930053	14.023223	0.010000
1.032059	14.022119	0.010000
1.134065	14.025329	0.010000
1.237071	14.023740	0.010000
1.340077	14.024023	0.010000
1.442082	14.021289	0.010000
1.545088	14.024019	0.010000
1.648094	14.026641	0.010000
1.751100	14.024208	0.010000
1.854106	14.026475	0.010000
1.956112	14.027769	0.010000
2.058118	14.025246	0.010000
2.161124	14.026208	0.010000
2.264130	14.028098	0.010000
2.367136	14.025628	0.010000
2.469141	14.028326	0.010000
2.571147	14.030790	0.010000
2.674153	14.031308	0.010000
2.777159	14.037550	0.010000
2.880165	14.034403	0.010000
2.982171	14.034527	0.010000
3.085176	14.030967	0.010000
3.187182	14.036369	0.010000
3.290188	14.039070	0.010000
3.393194	14.042247	0.010000
3.495200	14.036589	0.010000
3.597206	14.041399	0.010000
3.699212	14.045289	0.010000
3.801218	14.043216	0.010000
3.904223	14.041592	0.010000
4.006229	14.056896	0.010000
4.108235	14.069680	0.010000
4.210241	14.067968	0.010000
4.313247	14.070172	0.010000
4.415253	14.056205	0.010000
4.518259	14.061013	0.010000
4.620265	14.068732	0.010000
4.722270	14.065871	0.010000
4.824276	14.071607	0.010000
4.926282	14.065562	0.010000
5.028288	14.044027	0.010000
5.132294	14.044438	0.010000
5.235300	14.043051	0.010000
5.337306	14.047044	0.010000
5.440311	14.056221	0.010000
5.542317	14.059820	0.010000
5.644323	14.065209	0.010000
5.746329	14.076321	0.010000
5.849335	14.082964	0.010000
5.952341	14.090320	0.010000
6.055346	14.098605	0.010000
6.157352	14.109151	0.010000
6.260358	14.123500	0.010000
6.362364	14.123501	0.010000
6.464370	14.134217	0.010000
6.566376	14.139329	0.010000
6.668382	14.148362	0.010000
6.770387	14.154937	0.010000
6.873393	14.165386	0.010000
6.975399	14.181132	0.010000
7.077405	14.183909	0.010000
7.179411	14.190285	0.010000
7.282417	14.192696	0.010000
7.384422	14.204613	0.010000
7.486428	14.211292	0.010000
7.589434	14.220095	0.010000
7.692440	14.228202	0.010000
7.795446	14.238489	0.010000
7.897452	14.244583	0.010000
7.999458	14.254545	0.010000
8.102464	14.261158	0.010000
8.205469	14.265605	0.010000
8.308475	14.279317	0.010000
8.411481	14.283602	0.010000
8.513487	14.293438	0.010000
8.616493	14.301473	0.010000
8.718499	14.312578	0.010000
8.820505	14.314508	0.010000
8.923511	14.326583	0.010000
9.026516	14.330388	0.010000
9.129522	14.339471	0.010000
9.232528	14.345590	0.010000
9.352535	14.353789	0.010000
9.456541	14.365027	0.010000
9.559547	14.372243	0.010000
9.662553	14.380491	0.010000
9.764559	14.388396	0.010000
9.866564	14.396780	0.010000
9.968570	14.403308	0.010000
10.070576	14.411260	0.010000
10.172582	14.422663	0.010000
10.274588	14.424347	0.010000
10.377594	14.430165	0.010000
10.479599	14.430156	0.010000
10.582605	14.428826	0.010000
10.684611	14.429413	0.010000
10.786617	14.432756	0.010000
10.888623	14.432377	0.010000
10.990629	14.435155	0.010000
11.092635	14.432284	0.010000
11.194640	14.437041	0.010000
11.296646	14.436503	0.010000
11.398652	14.436409	0.010000
11.500658	14.435640	0.010000
11.602664	14.437785	0.010000
11.705669	14.436099	0.010000
11.807675	14.436234	0.010000
11.910681	14.439732	0.010000
12.012687	14.440115	0.010000
12.116693	14.438338	0.010000
12.218699	14.442214	0.010000
12.320705	14.441755	0.010000
12.422710	14.439809	0.010000
12.524716	14.441010	0.010000
12.626722	14.439173	0.010000
12.728728	14.440191	0.010000
12.831734	14.442246	0.010000
12.934740	14.440910	0.010000
13.036746	14.442171	0.010000
13.138752	14.445128	0.010000
13.240757	14.447213	0.010000
13.343763	14.443244	0.010000
13.446769	14.444578	0.010000
13.548775	14.441316	0.010000
13.650781	14.446463	0.010000
13.753787	14.447854	0.010000
13.855793	14.446664	0.010000
13.958798	14.444691	0.010000
14.060804	14.449578	0.010000
14.163810	14.447940	0.010000
14.266816	14.447351	0.010000
14.369822	14.448522	0.010000
14.471828	14.446562	0.010000
14.574834	14.450442	0.010000
14.676839	14.449739	0.010000
14.778845	14.451525	0.010000
14.880851	14.452655	0.010000
14.983857	14.451375	0.010000
15.085863	14.452244	0.010000
Sample : Nb
Pre-Pulse  Slope = 1.616287E-3 +/- 1.705399E-3 Intercept = 1.460919E+1 +/- 4.142433E-3 Residue = 2.265802E-7
Heat Pulse  Slope = 6.764056E-2 +/- 2.294382E-3 Intercept = 1.427555E+1 +/- 1.728397E-2 Residue = 2.481641E-7
Post-Pulse  Slope = 4.205849E-3 +/- 8.936544E-4 Intercept = 1.492928E+1 +/- 1.120260E-2 Residue = 3.759521E-8
Sample Voltage = 7.980000E-1 Sample Voltage Uncertainty = 1.000000E-3
Sample Current = 9.872010E+0 Sample Current Uncertainty = 1.000000E-5
t(s)	T(K)	dT(K)
0.000000	14.604474	0.010000
0.111007	14.604663	0.010000
0.214013	14.604195	0.010000
0.316018	14.605647	0.010000
0.419024	14.600170	0.010000
0.521030	14.604672	0.010000
0.623036	14.608900	0.010000
0.725042	14.606372	0.010000
0.827047	14.613198	0.010000
0.929053	14.629259	0.010000
1.032059	14.620250	0.010000
1.135065	14.608868	0.010000
1.238071	14.609128	0.010000
1.340077	14.610117	0.010000
1.443083	14.608079	0.010000
1.546089	14.609732	0.010000
1.649095	14.606344	0.010000
1.751101	14.607328	0.010000
1.853106	14.610276	0.010000
1.956112	14.608125	0.010000
2.059118	14.613002	0.010000
2.161124	14.613241	0.010000
2.264130	14.621886	0.010000
2.366136	14.610324	0.010000
2.469141	14.612514	0.010000
2.571147	14.611038	0.010000
2.673153	14.611565	0.010000
2.775159	14.609866	0.010000
2.877165	14.613651	0.010000
2.979171	14.611669	0.010000
3.081177	14.621465	0.010000
3.183182	14.613805	0.010000
3.286188	14.614984	0.010000
3.389194	14.615234	0.010000
3.492200	14.617849	0.010000
3.594206	14.615775	0.010000
3.696212	14.614706	0.010000
3.798217	14.616014	0.010000
3.900223	14.614787	0.010000
4.002229	14.617377	0.010000
4.104235	14.615533	0.010000
4.206241	14.616157	0.010000
4.308247	14.619202	0.010000
4.411252	14.620051	0.010000
4.514258	14.620335	0.010000
4.616264	14.622099	0.010000
4.718270	14.619958	0.010000
4.820276	14.618564	0.010000
4.922282	14.618556	0.010000
5.024288	14.619826	0.010000
5.127294	14.619972	0.010000
5.230299	14.620959	0.010000
5.332305	14.627548	0.010000
5.434311	14.636933	0.010000
5.536317	14.643082	0.010000
5.638323	14.650638	0.010000
5.740329	14.658400	0.010000
5.843334	14.663980	0.010000
5.946341	14.670643	0.010000
6.049346	14.679842	0.010000
6.152352	14.686090	0.010000
6.254358	14.691051	0.010000
6.357364	14.707645	0.010000
6.460370	14.704553	0.010000
6.562376	14.732072	0.010000
6.664382	14.725193	0.010000
6.766387	14.733969	0.010000
6.868393	14.744037	0.010000
6.970399	14.744525	0.010000
7.073405	14.757321	0.010000
7.176411	14.768591	0.010000
7.279417	14.771930	0.010000
7.382422	14.781232	0.010000
7.484428	14.780721	0.010000
7.587434	14.800558	0.010000
7.689440	14.791827	0.010000
7.792446	14.797852	0.010000
7.895452	14.808509	0.010000
7.997458	14.815545	0.010000
8.099463	14.819081	0.010000
8.201469	14.831070	0.010000
8.303475	14.836976	0.010000
8.405481	14.843733	0.010000
8.508487	14.847768	0.010000
8.610493	14.855844	0.010000
8.713499	14.862147	0.010000
8.816504	14.874542	0.010000
8.919510	14.877653	0.010000
9.021516	14.885255	0.010000
9.123522	14.891580	0.010000
9.225528	14.901915	0.010000
9.327534	14.906314	0.010000
9.430540	14.913195	0.010000
9.532546	14.923088	0.010000
9.635551	14.929729	0.010000
9.737557	14.933803	0.010000
9.840563	14.943392	0.010000
9.942569	14.947199	0.010000
10.045575	14.954737	0.010000
10.148581	14.961048	0.010000
10.251586	14.970933	0.010000
10.354592	14.969999	0.010000
10.457598	14.970933	0.010000
10.560604	14.969751	0.010000
10.662610	14.972585	0.010000
10.764616	14.972672	0.010000
10.867622	14.972226	0.010000
10.970628	14.972431	0.010000
11.073634	14.972979	0.010000
11.175640	14.973550	0.010000
11.277645	14.978529	0.010000
11.380651	14.976900	0.010000
11.482657	14.977204	0.010000
11.584663	14.976261	0.010000
11.686669	14.979447	0.010000
11.789675	14.976455	0.010000
11.891680	14.982816	0.010000
11.993686	14.983276	0.010000
12.095692	14.978306	0.010000
12.197698	14.981854	0.010000
12.300704	14.980928	0.010000
12.403710	14.982090	0.010000
12.505715	14.984865	0.010000
12.608721	14.981551	0.010000
12.711727	14.985708	0.010000
12.814733	14.982581	0.010000
12.916739	14.984292	0.010000
13.019745	14.983242	0.010000
13.121751	14.985621	0.010000
13.223757	14.986468	0.010000
13.325762	14.984798	0.010000
13.427768	14.982163	0.010000
13.530774	14.988175	0.010000
13.632780	14.984451	0.010000
13.734786	14.985042	0.010000
13.836792	14.987324	0.010000
13.939797	14.987731	0.010000
14.041803	14.986817	0.010000
14.144809	14.989628	0.010000
14.247815	14.988752	0.010000
14.350821	14.997745	0.010000
14.453827	14.990566	0.010000
14.556833	15.002897	0.010000
14.659839	15.019931	0.010000
14.761845	15.020200	0.010000
14.864851	15.014107	0.010000
14.966856	15.004000	0.010000
15.068862	14.993873	0.010000
Sample : Nb
Pre-Pulse  Slope = 3.786611E-3 +/- 5.601888E-4 Intercept = 1.509400E+1 +/- 1.358753E-3 Residue = 2.441269E-8
Heat Pulse  Slope = 5.670931E-2 +/- 6.055564E-3 Intercept = 1.483272E+1 +/- 4.560946E-2 Residue = 1.732181E-6
Post-Pulse  Slope = 3.317618E-3 +/- 6.502513E-4 Intercept = 1.540058E+1 +/- 8.149447E-3 Residue = 2.000328E-8
Sample Voltage = 7.980000E-1 Sample Voltage Uncertainty = 1.000000E-3
Sample Current = 9.872020E+0 Sample Current Uncertainty = 1.000000E-5
t(s)	T(K)	dT(K)
0.000000	15.094768	0.010000
0.110006	15.092959	0.010000
0.212012	15.095712	0.010000
0.314018	15.100003	0.010000
0.416024	15.092600	0.010000
0.518030	15.096994	0.010000
0.621036	15.094906	0.010000
0.724041	15.096525	0.010000
0.826047	15.096986	0.010000
0.928053	15.096631	0.010000
1.031059	15.098193	0.010000
1.133065	15.096152	0.010000
1.235071	15.097383	0.010000
1.337077	15.098273	0.010000
1.440083	15.100294	0.010000
1.542089	15.102405	0.010000
1.645094	15.101344	0.010000
1.748100	15.100012	0.010000
1.850106	15.104073	0.010000
1.953112	15.101313	0.010000
2.055118	15.099786	0.010000
2.157124	15.103416	0.010000
2.259130	15.104446	0.010000
2.361135	15.102709	0.010000
2.464141	15.102756	0.010000
2.566147	15.105215	0.010000
2.668153	15.106171	0.010000
2.770159	15.101563	0.010000
2.872164	15.105274	0.010000
2.974170	15.107029	0.010000
3.076176	15.104857	0.010000
3.179182	15.105586	0.010000
3.281188	15.106207	0.010000
3.384194	15.105184	0.010000
3.487200	15.105885	0.010000
3.590206	15.104464	0.010000
3.693212	15.107007	0.010000
3.796217	15.109575	0.010000
3.899223	15.111661	0.010000
4.001229	15.109019	0.010000
4.103235	15.107248	0.010000
4.206241	15.109548	0.010000
4.309247	15.108089	0.010000
4.412252	15.108427	0.010000
4.514258	15.112133	0.010000
4.616264	15.111719	0.010000
4.718270	15.108288	0.010000
4.821276	15.107608	0.010000
4.923282	15.112509	0.010000
5.026288	15.112274	0.010000
5.128294	15.111341	0.010000
5.230299	15.113166	0.010000
5.332305	15.111626	0.010000
5.434311	15.121008	0.010000
5.536317	15.121055	0.010000
5.638323	15.129625	0.010000
5.740328	15.149365	0.010000
5.842334	15.148575	0.010000
5.944340	15.170730	0.010000
6.047346	15.204701	0.010000
6.150352	15.224173	0.010000
6.252358	15.172172	0.010000
6.354363	15.178150	0.010000
6.456369	15.215312	0.010000
6.558375	15.191634	0.010000
6.661381	15.197269	0.010000
6.763387	15.204781	0.010000
6.866393	15.211005	0.010000
6.969399	15.215566	0.010000
7.071404	15.225382	0.010000
7.174410	15.231039	0.010000
7.277416	15.237157	0.010000
7.381423	15.243472	0.010000
7.484428	15.265027	0.010000
7.587434	15.258611	0.010000
7.689440	15.279277	0.010000
7.791446	15.273718	0.010000
7.893452	15.275521	0.010000
7.995458	15.283869	0.010000
8.098464	15.289249	0.010000
8.200469	15.316094	0.010000
8.303475	15.305896	0.010000
8.405481	15.309854	0.010000
8.507487	15.315007	0.010000
8.610493	15.325008	0.010000
8.713499	15.328103	0.010000
8.816504	15.337312	0.010000
8.918510	15.340554	0.010000
9.020516	15.348175	0.010000
9.122522	15.355288	0.010000
9.225528	15.361133	0.010000
9.328534	15.370043	0.010000
9.431540	15.373839	0.010000
9.533545	15.380410	0.010000
9.635551	15.388002	0.010000
9.737557	15.392517	0.010000
9.840563	15.399560	0.010000
9.943569	15.407018	0.010000
10.045575	15.411870	0.010000
10.147581	15.419768	0.010000
10.250587	15.427422	0.010000
10.353592	15.431902	0.010000
10.455598	15.436109	0.010000
10.557604	15.435287	0.010000
10.659610	15.436491	0.010000
10.761616	15.435328	0.010000
10.862621	15.434433	0.010000
10.965627	15.436391	0.010000
11.068633	15.435662	0.010000
11.170639	15.437983	0.010000
11.272645	15.437318	0.010000
11.374650	15.437919	0.010000
11.476656	15.440086	0.010000
11.578662	15.439247	0.010000
11.681668	15.441336	0.010000
11.783674	15.438245	0.010000
11.886680	15.440353	0.010000
11.988686	15.439622	0.010000
12.091692	15.441029	0.010000
12.194697	15.441531	0.010000
12.296703	15.439683	0.010000
12.399709	15.439501	0.010000
12.502715	15.443698	0.010000
12.605721	15.445178	0.010000
12.707727	15.439712	0.010000
12.810733	15.443735	0.010000
12.913739	15.446147	0.010000
13.016745	15.443293	0.010000
13.119750	15.445755	0.010000
13.222756	15.445475	0.010000
13.324762	15.444736	0.010000
13.427768	15.443219	0.010000
13.529774	15.444992	0.010000
13.632780	15.445768	0.010000
13.735786	15.447011	0.010000
13.838792	15.445553	0.010000
13.940797	15.445955	0.010000
14.042803	15.448006	0.010000
14.144809	15.446218	0.010000
14.246815	15.447450	0.010000
14.348821	15.447221	0.010000
14.451827	15.448380	0.010000
14.553833	15.448817	0.010000
14.655838	15.451211	0.010000
14.757844	15.451369	0.010000
14.859850	15.449856	0.010000
14.962856	15.449369	0.010000
15.064862	15.449694	0.010000
Sample : Nb
Pre-Pulse  Slope = 3.228008E-3 +/- 9.388012E-4 Intercept = 1.568810E+1 +/- 2.280476E-3 Residue = 6.882731E-8
Heat Pulse  Slope = 5.630077E-2 +/- 1.427834E-3 Intercept = 1.538633E+1 +/- 1.075840E-2 Residue = 9.609756E-8
Post-Pulse  Slope = 2.982576E-3 +/- 9.551037E-4 Intercept = 1.596460E+1 +/- 1.197761E-2 Residue = 4.299858E-8
Sample Voltage = 7.980000E-1 Sample Voltage Uncertainty = 1.000000E-3
Sample Current = 9.872010E+0 Sample Current Uncertainty = 1.000000E-5
t(s)	T(K)	dT(K)
0.000000	15.688676	0.010000
0.111007	15.686532	0.010000
0.213012	15.690341	0.010000
0.315018	15.689759	0.010000
0.417024	15.689624	0.010000
0.519030	15.685860	0.010000
0.621036	15.687576	0.010000
0.724041	15.688230	0.010000
0.826047	15.686645	0.010000
0.928053	15.696038	0.010000
1.030059	15.691713	0.010000
1.133065	15.695487	0.010000
1.235071	15.694353	0.010000
1.338077	15.691149	0.010000
1.441082	15.695405	0.010000
1.544088	15.691529	0.010000
1.647094	15.692929	0.010000
1.750100	15.693656	0.010000
1.853106	15.691000	0.010000
1.956112	15.698573	0.010000
2.058118	15.700173	0.010000
2.161124	15.694704	0.010000
2.263130	15.695438	0.010000
2.365136	15.696740	0.010000
2.467141	15.695461	0.010000
2.570147	15.698470	0.010000
2.673153	15.693770	0.010000
2.775159	15.696330	0.010000
2.878165	15.696397	0.010000
2.980171	15.696332	0.010000
3.083177	15.701688	0.010000
3.185183	15.699972	0.010000
3.288188	15.697049	0.010000
3.390194	15.699664	0.010000
3.492200	15.699877	0.010000
3.595206	15.696683	0.010000
3.697212	15.703652	0.010000
3.800218	15.699222	0.010000
3.902224	15.696385	0.010000
4.004230	15.701076	0.010000
4.107235	15.709641	0.010000
4.210241	15.704404	0.010000
4.313247	15.700064	0.010000
4.415253	15.705142	0.010000
4.517259	15.697608	0.010000
4.620265	15.700320	0.010000
4.722270	15.700115	0.010000
4.824276	15.700888	0.010000
4.927282	15.700606	0.010000
5.029288	15.705910	0.010000
5.131294	15.705505	0.010000
5.233300	15.706044	0.010000
5.335305	15.705717	0.010000
5.438311	15.703595	0.010000
5.540317	15.699690	0.010000
5.643323	15.701060	0.010000
5.745329	15.704420	0.010000
5.847335	15.714458	0.010000
5.949340	15.719675	0.010000
6.051346	15.724491	0.010000
6.154352	15.728079	0.010000
6.256358	15.742076	0.010000
6.359364	15.756528	0.010000
6.461370	15.750044	0.010000
6.564376	15.752761	0.010000
6.666381	15.759740	0.010000
6.768387	15.768578	0.010000
6.870393	15.771202	0.010000
6.973399	15.779472	0.010000
7.075405	15.782664	0.010000
7.178411	15.791210	0.010000
7.280416	15.796217	0.010000
7.382422	15.796999	0.010000
7.485428	15.805680	0.010000
7.588434	15.816622	0.010000
7.691440	15.819687	0.010000
7.793446	15.823704	0.010000
7.895452	15.832351	0.010000
7.997458	15.838457	0.010000
8.099463	15.841044	0.010000
8.202469	15.847838	0.010000
8.305475	15.853864	0.010000
8.408481	15.857997	0.010000
8.510487	15.868901	0.010000
8.613493	15.870692	0.010000
8.715499	15.876741	0.010000
8.818505	15.884339	0.010000
8.921511	15.887885	0.010000
9.023516	15.896896	0.010000
9.125522	15.903086	0.010000
9.228528	15.910308	0.010000
9.330534	15.916092	0.010000
9.433540	15.918710	0.010000
9.536546	15.924080	0.010000
9.639552	15.931480	0.010000
9.742558	15.940499	0.010000
9.844563	15.940228	0.010000
9.947569	15.948461	0.010000
10.050575	15.959258	0.010000
10.152581	15.963038	0.010000
10.254587	15.964353	0.010000
10.357593	15.972900	0.010000
10.460598	15.978797	0.010000
10.562604	15.980645	0.010000
10.665610	15.988541	0.010000
10.767616	15.994251	0.010000
10.870622	15.994191	0.010000
10.973628	15.995191	0.010000
11.075634	15.993922	0.010000
11.178639	15.996985	0.010000
11.281645	15.999181	0.010000
11.384652	15.997319	0.010000
11.486657	15.996371	0.010000
11.588663	15.997972	0.010000
11.691669	15.998537	0.010000
11.794675	16.000929	0.010000
11.897681	16.003831	0.010000
11.999687	16.004137	0.010000
12.102693	16.005175	0.010000
12.204699	16.004651	0.010000
12.306704	16.001601	0.010000
12.408710	16.001186	0.010000
12.510716	16.000104	0.010000
12.612721	16.002243	0.010000
12.715727	16.002964	0.010000
12.817733	16.002626	0.010000
12.920739	16.000443	0.010000
13.023745	16.002516	0.010000
13.125751	16.000524	0.010000
13.228757	16.005589	0.010000
13.330763	16.004133	0.010000
13.432768	16.004314	0.010000
13.535774	16.005162	0.010000
13.638780	16.007628	0.010000
13.741786	16.006045	0.010000
13.843792	16.005666	0.010000
13.945798	16.003802	0.010000
14.048804	16.006840	0.010000
14.151810	16.006536	0.010000
14.254816	16.009643	0.010000
14.356822	16.007019	0.010000
14.458827	16.005652	0.010000
14.560833	16.009044	0.010000
14.662839	16.006336	0.010000
14.765845	16.011191	0.010000
14.868851	16.009674	0.010000
14.970857	16.015211	0.010000
15.072862	16.009525	0.010000
Sample : Nb
Pre-Pulse  Slope = 2.738023E-3 +/- 8.538583E-4 Intercept = 1.615306E+1 +/- 2.075643E-3 Residue = 5.692711E-8
Heat Pulse  Slope = 5.366129E-2 +/- 3.066975E-3 Intercept = 1.588381E+1 +/- 2.311384E-2 Residue = 4.432115E-7
Post-Pulse  Slope = 4.690330E-3 +/- 6.426790E-3 Intercept = 1.639894E+1 +/- 8.055884E-2 Residue = 1.950714E-6
Sample Voltage = 7.980000E-1 Sample Voltage Uncertainty = 1.000000E-3
Sample Current = 9.872120E+0 Sample Current Uncertainty = 1.000000E-5
t(s)	T(K)	dT(K)
0.000000	16.158014	0.010000
0.111006	16.152567	0.010000
0.214012	16.154280	0.010000
0.317018	16.156690	0.010000
0.419024	16.153071	0.010000
0.521030	16.151776	0.010000
0.624036	16.156509	0.010000
0.726041	16.158301	0.010000
0.828047	16.157029	0.010000
0.931053	16.155221	0.010000
1.033059	16.161352	0.010000
1.136065	16.154098	0.010000
1.238071	16.153304	0.010000
1.340076	16.153962	0.010000
1.443082	16.153777	0.010000
1.546088	16.157995	0.010000
1.648094	16.155838	0.010000
1.750100	16.157507	0.010000
1.853106	16.154485	0.010000
1.956112	16.158066	0.010000
2.059118	16.160909	0.010000
2.162124	16.160375	0.010000
2.265130	16.160970	0.010000
2.367136	16.158237	0.010000
2.469141	16.159329	0.010000
2.572147	16.159930	0.010000
2.675153	16.165578	0.010000
2.778159	16.158703	0.010000
2.881165	16.160587	0.010000
2.983171	16.163629	0.010000
3.086176	16.163425	0.010000
3.188182	16.164313	0.010000
3.290188	16.159977	0.010000
3.392194	16.163297	0.010000
3.494200	16.161023	0.010000
3.597206	16.160556	0.010000
3.699212	16.163923	0.010000
3.801218	16.165926	0.010000
3.903223	16.160301	0.010000
4.005229	16.159986	0.010000
4.107235	16.167346	0.010000
4.210241	16.165632	0.010000
4.312247	16.168999	0.010000
4.414253	16.167877	0.010000
4.516258	16.169802	0.010000
4.618264	16.166183	0.010000
4.720270	16.166670	0.010000
4.822276	16.168546	0.010000
4.925282	16.163498	0.010000
5.028287	16.165941	0.010000
5.132294	16.168028	0.010000
5.235300	16.167440	0.010000
5.338305	16.168847	0.010000
5.440311	16.173159	0.010000
5.543317	16.181400	0.010000
5.646323	16.184848	0.010000
5.748329	16.187474	0.010000
5.850335	16.193326	0.010000
5.952341	16.197182	0.010000
6.054347	16.203269	0.010000
6.156352	16.217091	0.010000
6.258358	16.217779	0.010000
6.361364	16.221153	0.010000
6.464370	16.226069	0.010000
6.566376	16.237142	0.010000
6.668381	16.240628	0.010000
6.770387	16.241938	0.010000
6.872393	16.266710	0.010000
6.975399	16.254774	0.010000
7.077405	16.257987	0.010000
7.179410	16.268318	0.010000
7.281416	16.278804	0.010000
7.383422	16.304728	0.010000
7.485428	16.297235	0.010000
7.588434	16.290858	0.010000
7.690440	16.292007	0.010000
7.793446	16.298129	0.010000
7.896451	16.302019	0.010000
7.999457	16.310599	0.010000
8.101463	16.314489	0.010000
8.204469	16.319592	0.010000
8.307475	16.327682	0.010000
8.410481	16.332921	0.010000
8.513487	16.342304	0.010000
8.615493	16.343901	0.010000
8.717499	16.347878	0.010000
8.820505	16.358310	0.010000
8.922510	16.367911	0.010000
9.024516	16.368816	0.010000
9.126522	16.385592	0.010000
9.228528	16.374698	0.010000
9.331534	16.380640	0.010000
9.433539	16.389739	0.010000
9.535545	16.390926	0.010000
9.637551	16.411630	0.010000
9.740557	16.399436	0.010000
9.843563	16.408066	0.010000
9.946569	16.416036	0.010000
10.048575	16.417850	0.010000
10.151581	16.424096	0.010000
10.253586	16.434656	0.010000
10.354592	16.436027	0.010000
10.457598	16.436440	0.010000
10.560604	16.445035	0.010000
10.662610	16.440622	0.010000
10.764616	16.444926	0.010000
10.866621	16.439659	0.010000
10.968627	16.442070	0.010000
11.071633	16.437338	0.010000
11.174639	16.439248	0.010000
11.276645	16.442695	0.010000
11.378651	16.444614	0.010000
11.480657	16.453161	0.010000
11.582663	16.442146	0.010000
11.684669	16.470461	0.010000
11.786674	16.447554	0.010000
11.888680	16.453550	0.010000
11.990686	16.459846	0.010000
12.093692	16.444571	0.010000
12.195697	16.456920	0.010000
12.298704	16.484359	0.010000
12.401710	16.504918	0.010000
12.503715	16.479161	0.010000
12.606721	16.464201	0.010000
12.709727	16.471082	0.010000
12.812733	16.457630	0.010000
12.914739	16.449353	0.010000
13.017745	16.453165	0.010000
13.120750	16.456551	0.010000
13.223756	16.455296	0.010000
13.325762	16.456219	0.010000
13.428768	16.453318	0.010000
13.531774	16.455753	0.010000
13.634780	16.447056	0.010000
13.737786	16.454612	0.010000
13.840792	16.458024	0.010000
13.942798	16.477324	0.010000
14.045804	16.474093	0.010000
14.147809	16.455812	0.010000
14.249815	16.468383	0.010000
14.352821	16.472847	0.010000
14.455827	16.478232	0.010000
14.557833	16.509205	0.010000
14.659839	16.483919	0.010000
14.761844	16.454614	0.010000
14.864850	16.471621	0.010000
14.966856	16.453598	0.010000
15.069862	16.455030	0.010000
Sample : Nb
Pre-Pulse  Slope = 2.583057E-3 +/- 7.518909E-4 Intercept = 1.661563E+1 +/- 1.826913E-3 Residue = 4.397473E-8
Heat Pulse  Slope = 5.015236E-2 +/- 1.113313E-3 Intercept = 1.635470E+1 +/- 8.391687E-3 Residue = 5.821479E-8
Post-Pulse  Slope = 3.531324E-3 +/- 9.127996E-4 Intercept = 1.684709E+1 +/- 1.143945E-2 Residue = 3.931242E-8
Sample Voltage = 7.980000E-1 Sample Voltage Uncertainty = 1.000000E-3
Sample Current = 9.872150E+0 Sample Current Uncertainty = 1.000000E-5
t(s)	T(K)	dT(K)
0.000000	16.614358	0.010000
0.112006	16.618615	0.010000
0.214012	16.614038	0.010000
0.317018	16.616403	0.010000
0.420024	16.617283	0.010000
0.523030	16.617014	0.010000
0.625036	16.614541	0.010000
0.727042	16.619314	0.010000
0.830048	16.619702	0.010000
0.933053	16.616613	0.010000
1.036059	16.613920	0.010000
1.138065	16.618655	0.010000
1.240071	16.620035	0.010000
1.343077	16.622950	0.010000
1.445083	16.621743	0.010000
1.548089	16.619316	0.010000
1.650095	16.617512	0.010000
1.752100	16.620431	0.010000
1.855106	16.624481	0.010000
1.958112	16.620311	0.010000
2.060118	16.621842	0.010000
2.162124	16.623164	0.010000
2.264130	16.617597	0.010000
2.366135	16.623170	0.010000
2.468141	16.621469	0.010000
2.570147	16.621423	0.010000
2.672153	16.623503	0.010000
2.774158	16.619807	0.010000
2.876164	16.620209	0.010000
2.978170	16.620726	0.010000
3.081176	16.622274	0.010000
3.184182	16.625458	0.010000
3.287188	16.626501	0.010000
3.390194	16.622298	0.010000
3.492200	16.626399	0.010000
3.594205	16.624192	0.010000
3.697211	16.625073	0.010000
3.800217	16.627092	0.010000
3.903223	16.626926	0.010000
4.006229	16.624162	0.010000
4.109235	16.629103	0.010000
4.212241	16.628832	0.010000
4.315247	16.626147	0.010000
4.418252	16.626207	0.010000
4.520258	16.625208	0.010000
4.622264	16.629635	0.010000
4.725270	16.631054	0.010000
4.827276	16.626221	0.010000
4.929282	16.629490	0.010000
5.031288	16.625872	0.010000
5.133294	16.629990	0.010000
5.236300	16.629240	0.010000
5.338305	16.629092	0.010000
5.440311	16.630320	0.010000
5.543317	16.632209	0.010000
5.645323	16.637221	0.010000
5.747329	16.643171	0.010000
5.850335	16.646041	0.010000
5.952341	16.651660	0.010000
6.054346	16.658084	0.010000
6.157352	16.662598	0.010000
6.260358	16.670498	0.010000
6.363364	16.674982	0.010000
6.466370	16.680676	0.010000
6.569376	16.685497	0.010000
6.671381	16.688989	0.010000
6.773387	16.691114	0.010000
6.876393	16.701156	0.010000
6.978399	16.706094	0.010000
7.080405	16.709332	0.010000
7.182411	16.718301	0.010000
7.285417	16.717496	0.010000
7.387423	16.722206	0.010000
7.489428	16.729640	0.010000
7.591434	16.734025	0.010000
7.693440	16.739595	0.010000
7.795446	16.746264	0.010000
7.898452	16.750675	0.010000
8.000458	16.755117	0.010000
8.102463	16.760071	0.010000
8.204469	16.767463	0.010000
8.306475	16.774905	0.010000
8.408481	16.772391	0.010000
8.510487	16.776549	0.010000
8.613492	16.782997	0.010000
8.716498	16.793749	0.010000
8.818504	16.801601	0.010000
8.920510	16.806136	0.010000
9.022516	16.809391	0.010000
9.124522	16.809140	0.010000
9.226528	16.813146	0.010000
9.328534	16.826787	0.010000
9.430540	16.825643	0.010000
9.532545	16.834036	0.010000
9.634551	16.835849	0.010000
9.736557	16.846655	0.010000
9.839563	16.850034	0.010000
9.942569	16.856550	0.010000
10.044574	16.855310	0.010000
10.147580	16.868285	0.010000
10.249586	16.871789	0.010000
10.351592	16.878379	0.010000
10.453598	16.879140	0.010000
10.555604	16.884584	0.010000
10.658609	16.881478	0.010000
10.760615	16.885331	0.010000
10.862621	16.887061	0.010000
10.964627	16.884462	0.010000
11.067633	16.884848	0.010000
11.169639	16.884140	0.010000
11.272645	16.889237	0.010000
11.374650	16.888480	0.010000
11.477656	16.885488	0.010000
11.579662	16.887407	0.010000
11.682668	16.889515	0.010000
11.785674	16.889449	0.010000
11.888680	16.892306	0.010000
11.990686	16.890660	0.010000
12.092691	16.887392	0.010000
12.195697	16.887728	0.010000
12.298703	16.892758	0.010000
12.401709	16.893834	0.010000
12.503715	16.891712	0.010000
12.605721	16.887357	0.010000
12.707727	16.890938	0.010000
12.809732	16.893075	0.010000
12.911738	16.895192	0.010000
13.014744	16.891823	0.010000
13.116750	16.893565	0.010000
13.219756	16.894456	0.010000
13.322762	16.893450	0.010000
13.425768	16.893326	0.010000
13.528774	16.895595	0.010000
13.630780	16.892746	0.010000
13.732785	16.895948	0.010000
13.835791	16.893688	0.010000
13.938797	16.899985	0.010000
14.041803	16.894784	0.010000
14.143809	16.894860	0.010000
14.245815	16.894191	0.010000
14.348821	16.895723	0.010000
14.451827	16.900327	0.010000
14.554832	16.896079	0.010000
14.657838	16.900932	0.010000
14.759844	16.893807	0.010000
14.861850	16.895569	0.010000
14.963856	16.898426	0.010000
15.065862	16.897413	0.010000
Sample : Nb
Pre-Pulse  Slope = 2.789092E-3 +/- 8.107815E-4 Intercept = 1.702432E+1 +/- 1.968936E-3 Residue = 5.121789E-8
Heat Pulse  Slope = 4.835040E-2 +/- 8.753832E-4 Intercept = 1.677662E+1 +/- 6.594003E-3 Residue = 3.606045E-8
Post-Pulse  Slope = 3.403523E-3 +/- 7.379213E-4 Intercept = 1.724321E+1 +/- 9.246326E-3 Residue = 2.559265E-8
Sample Voltage = 7.980000E-1 Sample Voltage Uncertainty = 1.000000E-3
Sample Current = 9.872210E+0 Sample Current Uncertainty = 1.000000E-5
t(s)	T(K)	dT(K)
0.000000	17.020599	0.010000
0.111006	17.025630	0.010000
0.214012	17.024817	0.010000
0.316018	17.030065	0.010000
0.418024	17.028979	0.010000
0.521029	17.025221	0.010000
0.623035	17.029461	0.010000
0.726041	17.022865	0.010000
0.828047	17.027917	0.010000
0.930053	17.029038	0.010000
1.033059	17.024216	0.010000
1.136065	17.024725	0.010000
1.238070	17.029853	0.010000
1.340076	17.027704	0.010000
1.442082	17.028924	0.010000
1.544088	17.028655	0.010000
1.646094	17.028814	0.010000
1.748100	17.028833	0.010000
1.851106	17.027167	0.010000
1.953112	17.030423	0.010000
2.056118	17.028732	0.010000
2.158123	17.033681	0.010000
2.261129	17.031364	0.010000
2.364135	17.026260	0.010000
2.467141	17.036149	0.010000
2.570147	17.030901	0.010000
2.672153	17.035368	0.010000
2.774158	17.032146	0.010000
2.877164	17.032278	0.010000
2.979170	17.032978	0.010000
3.081176	17.032967	0.010000
3.184182	17.032167	0.010000
3.287188	17.034114	0.010000
3.390194	17.030788	0.010000
3.492200	17.033411	0.010000
3.594205	17.030313	0.010000
3.696211	17.038294	0.010000
3.798217	17.036486	0.010000
3.900223	17.034341	0.010000
4.002229	17.034542	0.010000
4.104235	17.035762	0.010000
4.206241	17.036937	0.010000
4.308246	17.036608	0.010000
4.410252	17.035202	0.010000
4.512258	17.034738	0.010000
4.614264	17.035522	0.010000
4.717270	17.038151	0.010000
4.820276	17.036084	0.010000
4.922281	17.037658	0.010000
5.024287	17.038565	0.010000
5.127293	17.039249	0.010000
5.230299	17.037629	0.010000
5.333305	17.040206	0.010000
5.435311	17.038074	0.010000
5.538317	17.044806	0.010000
5.640323	17.052624	0.010000
5.743329	17.055388	0.010000
5.846334	17.061787	0.010000
5.949340	17.068387	0.010000
6.051346	17.069613	0.010000
6.154352	17.074120	0.010000
6.256358	17.077953	0.010000
6.358364	17.083471	0.010000
6.460370	17.092266	0.010000
6.562375	17.092684	0.010000
6.664381	17.097296	0.010000
6.767387	17.103060	0.010000
6.869393	17.109385	0.010000
6.971399	17.112995	0.010000
7.073404	17.124212	0.010000
7.175410	17.125702	0.010000
7.277416	17.125047	0.010000
7.380422	17.132888	0.010000
7.482428	17.137627	0.010000
7.585434	17.145009	0.010000
7.688440	17.146959	0.010000
7.790445	17.153086	0.010000
7.892451	17.155971	0.010000
7.995457	17.161569	0.010000
8.098463	17.167074	0.010000
8.201469	17.174801	0.010000
8.304475	17.178734	0.010000
8.406481	17.184068	0.010000
8.508487	17.189792	0.010000
8.610492	17.191332	0.010000
8.712498	17.195143	0.010000
8.814504	17.203325	0.010000
8.917510	17.210393	0.010000
9.020516	17.213827	0.010000
9.123522	17.218754	0.010000
9.226528	17.222587	0.010000
9.329534	17.228971	0.010000
9.431540	17.230944	0.010000
9.533545	17.239872	0.010000
9.636551	17.240146	0.010000
9.738557	17.248240	0.010000
9.840563	17.254030	0.010000
9.943569	17.257383	0.010000
10.046575	17.261464	0.010000
10.148581	17.267761	0.010000
10.250586	17.273916	0.010000
10.352592	17.276705	0.010000
10.455598	17.277687	0.010000
10.557604	17.278135	0.010000
10.659610	17.280282	0.010000
10.761615	17.279377	0.010000
10.863621	17.280371	0.010000
10.965627	17.283531	0.010000
11.067633	17.277548	0.010000
11.169639	17.282014	0.010000
11.272645	17.282371	0.010000
11.374650	17.280657	0.010000
11.477656	17.283000	0.010000
11.579662	17.281452	0.010000
11.682668	17.285716	0.010000
11.785674	17.284603	0.010000
11.887680	17.284149	0.010000
11.990686	17.286215	0.010000
12.092691	17.284946	0.010000
12.194697	17.281700	0.010000
12.296703	17.285896	0.010000
12.398709	17.283208	0.010000
12.500715	17.285704	0.010000
12.602721	17.286655	0.010000
12.705727	17.285451	0.010000
12.808733	17.290294	0.010000
12.910738	17.287232	0.010000
13.012744	17.285674	0.010000
13.114750	17.285822	0.010000
13.216756	17.288773	0.010000
13.319762	17.289785	0.010000
13.421768	17.288604	0.010000
13.523773	17.289377	0.010000
13.625779	17.290865	0.010000
13.728785	17.290336	0.010000
13.830791	17.290525	0.010000
13.932797	17.288524	0.010000
14.034802	17.291825	0.010000
14.136808	17.286955	0.010000
14.239814	17.288169	0.010000
14.341820	17.290164	0.010000
14.443826	17.291886	0.010000
14.545832	17.293757	0.010000
14.648838	17.290974	0.010000
14.750844	17.290517	0.010000
14.853849	17.294853	0.010000
14.955855	17.290371	0.010000
15.058861	17.293807	0.010000
Sample : Nb
Pre-Pulse  Slope = 2.717208E-3 +/- 1.034401E-3 Intercept = 1.739820E+1 +/- 2.514325E-3 Residue = 8.339391E-8
Heat Pulse  Slope = 4.539151E-2 +/- 1.109689E-3 Intercept = 1.716131E+1 +/- 8.372554E-3 Residue = 5.915462E-8
Post-Pulse  Slope = 2.541394E-3 +/- 1.032115E-3 Intercept = 1.761737E+1 +/- 1.296490E-2 Residue = 5.010937E-8
Sample Voltage = 8.020000E-1 Sample Voltage Uncertainty = 1.000000E-3
Sample Current = 9.872120E+0 Sample Current Uncertainty = 1.000000E-5
t(s)	T(K)	dT(K)
0.000000	17.397045	0.010000
0.112006	17.402974	0.010000
0.214012	17.394553	0.010000
0.317018	17.401388	0.010000
0.420024	17.404564	0.010000
0.522030	17.399049	0.010000
0.624036	17.401665	0.010000
0.726041	17.399486	0.010000
0.828047	17.397586	0.010000
0.931053	17.406676	0.010000
1.034059	17.400937	0.010000
1.137065	17.402912	0.010000
1.240071	17.401588	0.010000
1.343077	17.401494	0.010000
1.445083	17.407786	0.010000
1.547089	17.400206	0.010000
1.649094	17.404881	0.010000
1.751100	17.400467	0.010000
1.854106	17.400801	0.010000
1.957112	17.399994	0.010000
2.060118	17.400071	0.010000
2.163124	17.399637	0.010000
2.266129	17.405766	0.010000
2.369135	17.407538	0.010000
2.471141	17.407701	0.010000
2.573147	17.401897	0.010000
2.675153	17.402831	0.010000
2.778159	17.411030	0.010000
2.880165	17.402135	0.010000
2.982171	17.402764	0.010000
3.084177	17.406317	0.010000
3.187182	17.406676	0.010000
3.289188	17.410086	0.010000
3.391194	17.407218	0.010000
3.493200	17.406403	0.010000
3.595205	17.413370	0.010000
3.697211	17.407344	0.010000
3.799217	17.409353	0.010000
3.901223	17.409643	0.010000
4.003229	17.403456	0.010000
4.105235	17.406828	0.010000
4.208241	17.410741	0.010000
4.311246	17.409306	0.010000
4.414252	17.412802	0.010000
4.516258	17.406351	0.010000
4.619264	17.410994	0.010000
4.722270	17.416765	0.010000
4.824276	17.411711	0.010000
4.926281	17.410403	0.010000
5.029287	17.413864	0.010000
5.131293	17.415377	0.010000
5.233299	17.415381	0.010000
5.336305	17.410682	0.010000
5.439311	17.417791	0.010000
5.542317	17.413817	0.010000
5.645323	17.417434	0.010000
5.747329	17.424051	0.010000
5.849334	17.425221	0.010000
5.951340	17.432864	0.010000
6.053346	17.438478	0.010000
6.155352	17.442046	0.010000
6.258358	17.445878	0.010000
6.361364	17.448728	0.010000
6.464370	17.457633	0.010000
6.566376	17.455384	0.010000
6.668381	17.461887	0.010000
6.770387	17.473349	0.010000
6.872393	17.471348	0.010000
6.975399	17.475712	0.010000
7.078405	17.484081	0.010000
7.181411	17.484683	0.010000
7.284417	17.488022	0.010000
7.386423	17.497357	0.010000
7.488428	17.500913	0.010000
7.591434	17.506394	0.010000
7.694440	17.510497	0.010000
7.796446	17.512213	0.010000
7.898452	17.523900	0.010000
8.000458	17.524746	0.010000
8.126465	17.532495	0.010000
8.228470	17.533291	0.010000
8.330476	17.544542	0.010000
8.432482	17.543640	0.010000
8.534488	17.548831	0.010000
8.636494	17.551851	0.010000
8.738500	17.554916	0.010000
8.841506	17.561801	0.010000
8.944511	17.569641	0.010000
9.047517	17.576388	0.010000
9.149523	17.576529	0.010000
9.252529	17.585278	0.010000
9.355535	17.588024	0.010000
9.457541	17.592929	0.010000
9.560547	17.595805	0.010000
9.662552	17.598770	0.010000
9.765558	17.607273	0.010000
9.868564	17.611989	0.010000
9.971570	17.613646	0.010000
10.074576	17.618205	0.010000
10.177582	17.621195	0.010000
10.280588	17.629853	0.010000
10.382594	17.634579	0.010000
10.484600	17.637026	0.010000
10.586606	17.636551	0.010000
10.689611	17.640214	0.010000
10.792617	17.643803	0.010000
10.894623	17.640836	0.010000
10.996629	17.644339	0.010000
11.099635	17.643523	0.010000
11.201641	17.645195	0.010000
11.303647	17.646721	0.010000
11.405652	17.649160	0.010000
11.507658	17.646274	0.010000
11.610664	17.645295	0.010000
11.713670	17.648441	0.010000
11.815676	17.647498	0.010000
11.917682	17.648142	0.010000
12.020688	17.646320	0.010000
12.122694	17.650562	0.010000
12.224699	17.649249	0.010000
12.327705	17.650338	0.010000
12.430711	17.648340	0.010000
12.533717	17.643182	0.010000
12.635723	17.652543	0.010000
12.737729	17.648955	0.010000
12.839735	17.652723	0.010000
12.941740	17.648502	0.010000
13.043746	17.650745	0.010000
13.146752	17.652367	0.010000
13.248758	17.653595	0.010000
13.350763	17.646135	0.010000
13.452769	17.648386	0.010000
13.554775	17.651400	0.010000
13.657781	17.654717	0.010000
13.760787	17.652534	0.010000
13.862793	17.651487	0.010000
13.965799	17.655025	0.010000
14.068805	17.649979	0.010000
14.170810	17.657067	0.010000
14.272816	17.654023	0.010000
14.374822	17.654563	0.010000
14.477828	17.656437	0.010000
14.580834	17.652474	0.010000
14.683840	17.653644	0.010000
14.785846	17.656056	0.010000
14.888852	17.652162	0.010000
14.991858	17.655234	0.010000
15.093863	17.658546	0.010000
Sample : Nb
Pre-Pulse  Slope = 2.142796E-3 +/- 6.818010E-4 Intercept = 1.776350E+1 +/- 1.655785E-3 Residue = 3.613838E-8
Heat Pulse  Slope = 1.640609E-1 +/- 1.405602E-3 Intercept = 1.688555E+1 +/- 1.058317E-2 Residue = 9.304506E-8
Post-Pulse  Slope = 2.469905E-3 +/- 9.579661E-4 Intercept = 1.856197E+1 +/- 1.200284E-2 Residue = 4.321637E-8
Sample Voltage = 1.600000E+0 Sample Voltage Uncertainty = 1.000000E-2
Sample Current = 1.976812E+1 Sample Current Uncertainty = 1.000000E-5
t(s)	T(K)	dT(K)
0.000000	17.761450	0.010000
0.111006	17.763332	0.010000
0.214012	17.765111	0.010000
0.316018	17.766577	0.010000
0.419024	17.761482	0.010000
0.522030	17.762704	0.010000
0.625036	17.761802	0.010000
0.728042	17.766682	0.010000
0.830047	17.764723	0.010000
0.933053	17.765753	0.010000
1.035059	17.765599	0.010000
1.137065	17.764638	0.010000
1.239071	17.767769	0.010000
1.341076	17.767942	0.010000
1.443082	17.765084	0.010000
1.546088	17.770565	0.010000
1.648094	17.765255	0.010000
1.750100	17.766158	0.010000
1.853106	17.767514	0.010000
1.955112	17.768695	0.010000
2.057117	17.768526	0.010000
2.159123	17.766020	0.010000
2.262129	17.770821	0.010000
2.365135	17.769993	0.010000
2.468141	17.770691	0.010000
2.570147	17.767687	0.010000
2.672153	17.770119	0.010000
2.774158	17.768224	0.010000
2.877164	17.773619	0.010000
2.979170	17.769575	0.010000
3.081176	17.766637	0.010000
3.183182	17.773669	0.010000
3.286188	17.770998	0.010000
3.388194	17.771564	0.010000
3.490200	17.768182	0.010000
3.593205	17.772834	0.010000
3.695211	17.769665	0.010000
3.797217	17.769930	0.010000
3.899223	17.770593	0.010000
4.001229	17.772987	0.010000
4.103234	17.776590	0.010000
4.206240	17.775219	0.010000
4.308246	17.771839	0.010000
4.410252	17.773929	0.010000
4.512258	17.776221	0.010000
4.614264	17.774185	0.010000
4.717270	17.775599	0.010000
4.819275	17.773867	0.010000
4.921281	17.776573	0.010000
5.023287	17.775482	0.010000
5.125293	17.776950	0.010000
5.228299	17.775188	0.010000
5.330305	17.774028	0.010000
5.432311	17.782360	0.010000
5.534317	17.795314	0.010000
5.637322	17.810841	0.010000
5.740328	17.828564	0.010000
5.843334	17.845949	0.010000
5.945340	17.864548	0.010000
6.047346	17.877825	0.010000
6.149352	17.889886	0.010000
6.251358	17.908030	0.010000
6.354363	17.925539	0.010000
6.456369	17.943325	0.010000
6.559375	17.957029	0.010000
6.661381	17.983342	0.010000
6.763387	17.999325	0.010000
6.865393	18.014100	0.010000
6.968399	18.028488	0.010000
7.070405	18.044868	0.010000
7.172410	18.065004	0.010000
7.274416	18.081143	0.010000
7.376422	18.097370	0.010000
7.479428	18.112132	0.010000
7.582434	18.126789	0.010000
7.684439	18.150236	0.010000
7.786445	18.163829	0.010000
7.889451	18.185512	0.010000
7.992457	18.198573	0.010000
8.095463	18.214240	0.010000
8.198469	18.230893	0.010000
8.300475	18.248348	0.010000
8.402481	18.266402	0.010000
8.504486	18.276101	0.010000
8.607492	18.293121	0.010000
8.709498	18.313623	0.010000
8.812504	18.333500	0.010000
8.914510	18.342290	0.010000
9.016516	18.358982	0.010000
9.118521	18.372370	0.010000
9.221527	18.394384	0.010000
9.323533	18.407911	0.010000
9.426539	18.425311	0.010000
9.528545	18.439680	0.010000
9.631551	18.456851	0.010000
9.733557	18.470980	0.010000
9.836563	18.484888	0.010000
9.938568	18.508778	0.010000
10.040574	18.521780	0.010000
10.142580	18.539439	0.010000
10.245586	18.552349	0.010000
10.347592	18.566729	0.010000
10.450598	18.577173	0.010000
10.552603	18.581392	0.010000
10.655609	18.581123	0.010000
10.757615	18.584865	0.010000
10.860621	18.583338	0.010000
10.963627	18.584828	0.010000
11.066633	18.586860	0.010000
11.168639	18.592191	0.010000
11.270645	18.587387	0.010000
11.372650	18.591690	0.010000
11.475656	18.588637	0.010000
11.577662	18.588214	0.010000
11.679668	18.589766	0.010000
11.782674	18.588761	0.010000
11.884680	18.591839	0.010000
11.987686	18.592581	0.010000
12.090692	18.594697	0.010000
12.193697	18.592884	0.010000
12.296703	18.597688	0.010000
12.398709	18.592525	0.010000
12.501715	18.594696	0.010000
12.603721	18.595125	0.010000
12.705727	18.594757	0.010000
12.808733	18.591507	0.010000
12.910738	18.591264	0.010000
13.012744	18.593806	0.010000
13.114750	18.591509	0.010000
13.216756	18.595686	0.010000
13.318762	18.595943	0.010000
13.421768	18.593860	0.010000
13.523773	18.598046	0.010000
13.626779	18.594646	0.010000
13.728785	18.596389	0.010000
13.830791	18.593086	0.010000
13.932797	18.596532	0.010000
14.035803	18.597817	0.010000
14.138809	18.598015	0.010000
14.241815	18.597532	0.010000
14.343820	18.598074	0.010000
14.445826	18.601458	0.010000
14.547832	18.603129	0.010000
14.650838	18.598037	0.010000
14.752844	18.599681	0.010000
14.854849	18.598697	0.010000
14.956855	18.604999	0.010000
15.058861	18.599857	0.010000
Sample : Nb
Pre-Pulse  Slope = 2.547115E-3 +/- 7.826286E-4 Intercept = 1.865778E+1 +/- 1.900126E-3 Residue = 4.765444E-8
Heat Pulse  Slope = 1.432819E-1 +/- 1.132989E-3 Intercept = 1.789672E+1 +/- 8.530619E-3 Residue = 6.023016E-8
Post-Pulse  Slope = 3.517229E-3 +/- 1.083394E-3 Intercept = 1.934312E+1 +/- 1.357046E-2 Residue = 5.525430E-8
Sample Voltage = 1.610000E+0 Sample Voltage Uncertainty = 1.000000E-2
Sample Current = 1.976806E+1 Sample Current Uncertainty = 1.000000E-5
t(s)	T(K)	dT(K)
0.000000	18.662029	0.010000
0.111006	18.655542	0.010000
0.214012	18.658762	0.010000
0.316018	18.659215	0.010000
0.419024	18.664058	0.010000
0.521030	18.657467	0.010000
0.623036	18.660637	0.010000
0.725041	18.660509	0.010000
0.828047	18.660616	0.010000
0.930053	18.659560	0.010000
1.032059	18.660535	0.010000
1.135065	18.660564	0.010000
1.238071	18.661088	0.010000
1.341077	18.663711	0.010000
1.444083	18.660786	0.010000
1.546089	18.663390	0.010000
1.648094	18.658746	0.010000
1.750100	18.662597	0.010000
1.853106	18.661300	0.010000
1.955112	18.660021	0.010000
2.057118	18.664317	0.010000
2.159123	18.661811	0.010000
2.261129	18.661600	0.010000
2.363135	18.667968	0.010000
2.466141	18.661635	0.010000
2.568147	18.663576	0.010000
2.670153	18.666657	0.010000
2.773159	18.666914	0.010000
2.876164	18.666783	0.010000
2.979170	18.665716	0.010000
3.081176	18.670045	0.010000
3.183182	18.665897	0.010000
3.285188	18.661058	0.010000
3.387194	18.661119	0.010000
3.489200	18.666134	0.010000
3.592206	18.666675	0.010000
3.694211	18.667383	0.010000
3.797217	18.668299	0.010000
3.900223	18.670794	0.010000
4.002229	18.664270	0.010000
4.104235	18.669286	0.010000
4.207241	18.670913	0.010000
4.309247	18.670819	0.010000
4.412252	18.668548	0.010000
4.514258	18.671168	0.010000
4.616264	18.665033	0.010000
4.718270	18.664249	0.010000
4.821276	18.671407	0.010000
4.923282	18.667073	0.010000
5.025288	18.666735	0.010000
5.128294	18.673977	0.010000
5.230299	18.669460	0.010000
5.332305	18.668338	0.010000
5.434311	18.677963	0.010000
5.537317	18.691413	0.010000
5.639323	18.700732	0.010000
5.742329	18.721121	0.010000
5.844334	18.731414	0.010000
5.946340	18.749801	0.010000
6.049346	18.763175	0.010000
6.152352	18.777183	0.010000
6.254358	18.789619	0.010000
6.356364	18.810932	0.010000
6.458369	18.817134	0.010000
6.560375	18.833655	0.010000
6.662381	18.856049	0.010000
6.765387	18.865174	0.010000
6.867393	18.883390	0.010000
6.969399	18.897766	0.010000
7.071404	18.909752	0.010000
7.173410	18.924543	0.010000
7.275416	18.939585	0.010000
7.378422	18.955561	0.010000
7.480428	18.969493	0.010000
7.582434	18.980980	0.010000
7.684440	19.002023	0.010000
7.787446	19.011759	0.010000
7.889452	19.023340	0.010000
7.991457	19.044242	0.010000
8.093463	19.053804	0.010000
8.195469	19.071533	0.010000
8.297475	19.085368	0.010000
8.399480	19.103187	0.010000
8.502486	19.114513	0.010000
8.605492	19.131778	0.010000
8.708498	19.142084	0.010000
8.810504	19.159022	0.010000
8.913510	19.171254	0.010000
9.015516	19.185484	0.010000
9.117522	19.207178	0.010000
9.220528	19.214354	0.010000
9.323534	19.222421	0.010000
9.425539	19.243832	0.010000
9.528545	19.257263	0.010000
9.631551	19.268611	0.010000
9.734557	19.284494	0.010000
9.837563	19.299665	0.010000
9.939569	19.313029	0.010000
10.041574	19.323307	0.010000
10.144580	19.337576	0.010000
10.247586	19.356011	0.010000
10.349592	19.368743	0.010000
10.452598	19.377647	0.010000
10.554604	19.373482	0.010000
10.656610	19.380230	0.010000
10.758615	19.382358	0.010000
10.860621	19.382573	0.010000
10.962627	19.381804	0.010000
11.064633	19.382515	0.010000
11.166639	19.383812	0.010000
11.268645	19.377616	0.010000
11.370650	19.381444	0.010000
11.472656	19.383075	0.010000
11.574662	19.381588	0.010000
11.676668	19.386602	0.010000
11.778674	19.385270	0.010000
11.881680	19.382739	0.010000
11.983685	19.386994	0.010000
12.086691	19.387087	0.010000
12.188697	19.384458	0.010000
12.291703	19.389934	0.010000
12.394709	19.388509	0.010000
12.496715	19.390878	0.010000
12.598721	19.388519	0.010000
12.700727	19.388833	0.010000
12.802732	19.384310	0.010000
12.904738	19.389834	0.010000
13.007744	19.390597	0.010000
13.110750	19.386388	0.010000
13.212756	19.388843	0.010000
13.314762	19.392912	0.010000
13.417768	19.390092	0.010000
13.520773	19.390015	0.010000
13.623779	19.386540	0.010000
13.726785	19.393374	0.010000
13.828791	19.393263	0.010000
13.931797	19.389195	0.010000
14.034803	19.391713	0.010000
14.137809	19.387339	0.010000
14.240815	19.389632	0.010000
14.343821	19.395917	0.010000
14.446826	19.393523	0.010000
14.549832	19.392481	0.010000
14.651838	19.391348	0.010000
14.753844	19.391246	0.010000
14.856850	19.396236	0.010000
14.958856	19.393430	0.010000
15.060862	19.397328	0.010000
Sample : Nb
Pre-Pulse  Slope = 2.026147E-3 +/- 1.074618E-3 Intercept = 1.945594E+1 +/- 2.612115E-3 Residue = 8.997135E-8
Heat Pulse  Slope = 1.258698E-1 +/- 1.176502E-3 Intercept = 1.876821E+1 +/- 8.868350E-3 Residue = 6.520542E-8
Post-Pulse  Slope = 3.192596E-3 +/- 1.013956E-3 Intercept = 2.005550E+1 +/- 1.271432E-2 Residue = 4.839330E-8
Sample Voltage = 1.610000E+0 Sample Voltage Uncertainty = 1.000000E-2
Sample Current = 1.976806E+1 Sample Current Uncertainty = 1.000000E-5
t(s)	T(K)	dT(K)
0.001000	19.457799	0.010000
0.112006	19.460415	0.010000
0.215012	19.456475	0.010000
0.318018	19.462795	0.010000
0.420024	19.459799	0.010000
0.522030	19.451978	0.010000
0.625036	19.463408	0.010000
0.727042	19.456729	0.010000
0.830048	19.455845	0.010000
0.933053	19.462064	0.010000
1.036059	19.459444	0.010000
1.138065	19.455838	0.010000
1.240071	19.462038	0.010000
1.342077	19.456439	0.010000
1.444083	19.456075	0.010000
1.547089	19.458614	0.010000
1.650095	19.459647	0.010000
1.752100	19.458411	0.010000
1.855106	19.459821	0.010000
1.957112	19.459149	0.010000
2.060118	19.457495	0.010000
2.162124	19.457514	0.010000
2.264130	19.461528	0.010000
2.366135	19.466139	0.010000
2.469141	19.465561	0.010000
2.572147	19.461980	0.010000
2.674153	19.460254	0.010000
2.777159	19.462199	0.010000
2.879165	19.457257	0.010000
2.982171	19.457609	0.010000
3.085176	19.463605	0.010000
3.187182	19.462694	0.010000
3.289188	19.461535	0.010000
3.391194	19.463472	0.010000
3.494200	19.461832	0.010000
3.596206	19.468426	0.010000
3.698212	19.467429	0.010000
3.800217	19.458255	0.010000
3.902223	19.464109	0.010000
4.005229	19.461778	0.010000
4.108235	19.465515	0.010000
4.210241	19.466561	0.010000
4.313247	19.463841	0.010000
4.415253	19.465486	0.010000
4.517258	19.465473	0.010000
4.619264	19.466434	0.010000
4.721270	19.459751	0.010000
4.824276	19.465381	0.010000
4.927282	19.466892	0.010000
5.030288	19.467899	0.010000
5.134294	19.466281	0.010000
5.236300	19.465359	0.010000
5.338305	19.466244	0.010000
5.441311	19.463949	0.010000
5.543317	19.470211	0.010000
5.645323	19.478288	0.010000
5.747329	19.488240	0.010000
5.850335	19.511848	0.010000
5.952341	19.515664	0.010000
6.054346	19.527554	0.010000
6.156352	19.540272	0.010000
6.259358	19.556473	0.010000
6.362364	19.571162	0.010000
6.464370	19.578756	0.010000
6.566376	19.593021	0.010000
6.669382	19.608981	0.010000
6.772388	19.617421	0.010000
6.874393	19.633640	0.010000
6.977399	19.647010	0.010000
7.080405	19.660634	0.010000
7.182411	19.675135	0.010000
7.284417	19.685694	0.010000
7.387423	19.695686	0.010000
7.489429	19.714256	0.010000
7.592434	19.727842	0.010000
7.694440	19.740403	0.010000
7.796446	19.751769	0.010000
7.898452	19.762138	0.010000
8.000458	19.778210	0.010000
8.103464	19.791897	0.010000
8.205469	19.797324	0.010000
8.307475	19.816961	0.010000
8.410481	19.825709	0.010000
8.513487	19.837893	0.010000
8.616493	19.849407	0.010000
8.718499	19.864782	0.010000
8.820505	19.874059	0.010000
8.922510	19.890608	0.010000
9.024516	19.898519	0.010000
9.127522	19.910459	0.010000
9.230528	19.931859	0.010000
9.333534	19.938584	0.010000
9.435540	19.949594	0.010000
9.538546	19.963555	0.010000
9.640552	19.976845	0.010000
9.742557	19.987850	0.010000
9.845563	19.997526	0.010000
9.948569	20.016981	0.010000
10.050575	20.026564	0.010000
10.153581	20.040883	0.010000
10.255587	20.049868	0.010000
10.357593	20.064568	0.010000
10.459598	20.077111	0.010000
10.562604	20.083675	0.010000
10.665610	20.083628	0.010000
10.768616	20.089486	0.010000
10.870622	20.092507	0.010000
10.973628	20.089480	0.010000
11.076633	20.093108	0.010000
11.178639	20.092256	0.010000
11.281645	20.094994	0.010000
11.383651	20.091869	0.010000
11.486657	20.089297	0.010000
11.588663	20.088336	0.010000
11.690669	20.095041	0.010000
11.792675	20.090588	0.010000
11.895680	20.090522	0.010000
11.997686	20.091830	0.010000
12.100692	20.092827	0.010000
12.203698	20.097879	0.010000
12.305704	20.094393	0.010000
12.407710	20.094173	0.010000
12.509716	20.094689	0.010000
12.611722	20.097125	0.010000
12.714727	20.099446	0.010000
12.816733	20.099692	0.010000
12.919739	20.098949	0.010000
13.021745	20.094421	0.010000
13.123751	20.096234	0.010000
13.225757	20.098366	0.010000
13.328763	20.098171	0.010000
13.431768	20.094741	0.010000
13.534774	20.099881	0.010000
13.636780	20.099965	0.010000
13.738786	20.100135	0.010000
13.841792	20.100540	0.010000
13.943798	20.098249	0.010000
14.045804	20.101139	0.010000
14.148809	20.095088	0.010000
14.250815	20.095932	0.010000
14.353821	20.099409	0.010000
14.456827	20.102662	0.010000
14.558833	20.099274	0.010000
14.660839	20.101003	0.010000
14.762845	20.100767	0.010000
14.865850	20.103766	0.010000
14.967856	20.102347	0.010000
15.069862	20.102949	0.010000
Sample : Nb
Pre-Pulse  Slope = 8.175174E-4 +/- 9.469998E-4 Intercept = 2.014733E+1 +/- 2.302659E-3 Residue = 7.004763E-8
Heat Pulse  Slope = 1.118766E-1 +/- 1.119074E-3 Intercept = 1.954982E+1 +/- 8.438732E-3 Residue = 5.904505E-8
Post-Pulse  Slope = 2.355474E-3 +/- 7.534016E-4 Intercept = 2.068514E+1 +/- 9.445647E-3 Residue = 2.678440E-8
Sample Voltage = 1.610000E+0 Sample Voltage Uncertainty = 1.000000E-2
Sample Current = 1.976816E+1 Sample Current Uncertainty = 1.000000E-5
t(s)	T(K)	dT(K)
0.000000	20.144100	0.010000
0.112006	20.144862	0.010000
0.214012	20.150010	0.010000
0.317018	20.147641	0.010000
0.420024	20.145869	0.010000
0.523030	20.145119	0.010000
0.625036	20.146722	0.010000
0.727041	20.145767	0.010000
0.829047	20.150262	0.010000
0.932053	20.148966	0.010000
1.034059	20.143572	0.010000
1.136065	20.150541	0.010000
1.238070	20.148760	0.010000
1.340076	20.150516	0.010000
1.443082	20.147156	0.010000
1.546088	20.151931	0.010000
1.648094	20.150693	0.010000
1.751100	20.146708	0.010000
1.854106	20.146064	0.010000
1.956112	20.148028	0.010000
2.059118	20.149458	0.010000
2.162124	20.153200	0.010000
2.264130	20.150668	0.010000
2.367136	20.153490	0.010000
2.470141	20.152078	0.010000
2.573147	20.146402	0.010000
2.676153	20.144327	0.010000
2.778159	20.151197	0.010000
2.880165	20.147167	0.010000
2.983171	20.153982	0.010000
3.085176	20.152677	0.010000
3.188182	20.149039	0.010000
3.291188	20.147781	0.010000
3.393194	20.148565	0.010000
3.496200	20.148272	0.010000
3.598206	20.149616	0.010000
3.701211	20.153515	0.010000
3.803217	20.152105	0.010000
3.906223	20.146235	0.010000
4.009229	20.151094	0.010000
4.111235	20.153938	0.010000
4.214241	20.155159	0.010000
4.317247	20.155682	0.010000
4.420253	20.149795	0.010000
4.523259	20.156407	0.010000
4.625264	20.153224	0.010000
4.727270	20.152130	0.010000
4.830276	20.151448	0.010000
4.933282	20.156204	0.010000
5.035288	20.154412	0.010000
5.138294	20.156444	0.010000
5.240300	20.159999	0.010000
5.342305	20.154769	0.010000
5.444311	20.166974	0.010000
5.546317	20.173717	0.010000
5.649323	20.182611	0.010000
5.752329	20.192909	0.010000
5.854335	20.204957	0.010000
5.956340	20.216672	0.010000
6.058346	20.227458	0.010000
6.160352	20.234359	0.010000
6.262358	20.249246	0.010000
6.364364	20.257657	0.010000
6.466370	20.270157	0.010000
6.569376	20.288309	0.010000
6.671381	20.300010	0.010000
6.774387	20.310817	0.010000
6.876393	20.319699	0.010000
6.979399	20.331758	0.010000
7.081405	20.343326	0.010000
7.184411	20.351093	0.010000
7.287417	20.366556	0.010000
7.389422	20.375644	0.010000
7.492428	20.389477	0.010000
7.594434	20.401702	0.010000
7.696440	20.412445	0.010000
7.799446	20.426985	0.010000
7.901452	20.433704	0.010000
8.004457	20.444915	0.010000
8.107464	20.457915	0.010000
8.209469	20.466133	0.010000
8.311475	20.479749	0.010000
8.414481	20.488257	0.010000
8.517487	20.502447	0.010000
8.619493	20.510725	0.010000
8.721498	20.528570	0.010000
8.823504	20.536556	0.010000
8.926510	20.546058	0.010000
9.029516	20.557816	0.010000
9.131522	20.567751	0.010000
9.233528	20.578954	0.010000
9.336534	20.594558	0.010000
9.438540	20.604246	0.010000
9.540545	20.609489	0.010000
9.642551	20.624111	0.010000
9.744557	20.635324	0.010000
9.847563	20.648664	0.010000
9.949569	20.656103	0.010000
10.052575	20.672637	0.010000
10.154581	20.677967	0.010000
10.256587	20.686682	0.010000
10.358593	20.701999	0.010000
10.460598	20.705266	0.010000
10.563604	20.704048	0.010000
10.665610	20.711864	0.010000
10.767616	20.706963	0.010000
10.869622	20.711038	0.010000
10.971627	20.710236	0.010000
11.073633	20.710046	0.010000
11.175639	20.709742	0.010000
11.278645	20.711980	0.010000
11.380651	20.713192	0.010000
11.482656	20.711299	0.010000
11.585662	20.710576	0.010000
11.687668	20.714585	0.010000
11.789674	20.712366	0.010000
11.891680	20.714777	0.010000
11.994686	20.715280	0.010000
12.096692	20.714667	0.010000
12.199697	20.711133	0.010000
12.302703	20.716500	0.010000
12.404709	20.713397	0.010000
12.507715	20.714692	0.010000
12.610721	20.712923	0.010000
12.713727	20.715488	0.010000
12.815733	20.717146	0.010000
12.918739	20.716924	0.010000
13.020745	20.718331	0.010000
13.122750	20.713206	0.010000
13.224756	20.717640	0.010000
13.327762	20.714052	0.010000
13.430768	20.715084	0.010000
13.533774	20.718349	0.010000
13.635780	20.718947	0.010000
13.738786	20.717319	0.010000
13.840792	20.717629	0.010000
13.943798	20.716204	0.010000
14.046803	20.720390	0.010000
14.148809	20.718286	0.010000
14.250815	20.717486	0.010000
14.352821	20.717751	0.010000
14.455827	20.717578	0.010000
14.557833	20.716027	0.010000
14.659838	20.717954	0.010000
14.761844	20.715995	0.010000
14.864850	20.719338	0.010000
14.967856	20.719762	0.010000
15.070862	20.720110	0.010000
